submission_id,QUD,RT,age,both_norms_shown,endTime,expected,experiment_id,gender,ingroup_descriptive_norm,option1,option2,option3,option4,option5,option6,option7,option8,option9,question,response,startDate,startTime,timeSpent,topic,trial_name,trial_number
2876,,7524,22,0,1629821861860,NA,259,male,-1,Gun control,Feminism,Joe Biden,Immigration and Dreamers,Transgender rights,Drug legalization,The Black Lives Matter movement,Climate change,Taxing religious organization,What's the most important topic for you?,Climate change,Tue Aug 24 2021 18:16:54 GMT+0200 (Central European Summer Time),1629821814845,0.7835833333333333,NA,topic_choice_trial,1
2876,,3657,22,0,1629821861860,NA,259,male,-1,strongly disagree,strongly agree,NA,NA,NA,NA,NA,NA,NA,Adults should have the right to carry a concealed handgun,5,Tue Aug 24 2021 18:16:54 GMT+0200 (Central European Summer Time),1629821814845,0.7835833333333333,Gun control,group_rating,1
2876,,23534,22,0,1629821861860,NA,259,male,-1,Definitely call the police and report the robber,Definitely do nothing and leave the robber alone,NA,NA,NA,NA,NA,NA,NA,"Imagine you have witnessed a man rob a bank. However, you then saw him do something unexpected with the money. He donated it all to a run-down orphanage that would benefit greatly from the money. You must decide whether to call the police and report the robber or do nothing and leave the robber alone.",3,Tue Aug 24 2021 18:16:54 GMT+0200 (Central European Summer Time),1629821814845,0.7835833333333333,NA,dilemma_trial,1
2876,,4965,22,0,1629821861860,NA,259,male,-1,I have a very bad feeling,I have a very good feeling,NA,NA,NA,NA,NA,NA,NA,How do you feel about your choice?,3,Tue Aug 24 2021 18:16:54 GMT+0200 (Central European Summer Time),1629821814845,0.7835833333333333,NA,feeling_trial,1
2876,,17785,22,0,1629821861860,Participants chose which action they preferred,259,male,-1,Participants chose which action they preferred,"Due to a computer error, participants were not allocated equally to imagine performing the different actions",No data was saved during the experiment.,The participants completed the experiment with their eyes closed.,NA,NA,NA,NA,NA,"As mentioned before, this study is a follow-up to a previous study. Given the information provided in the instructions, which of the following statements about the previous study are true?",Participants chose which action they preferred,Tue Aug 24 2021 18:16:54 GMT+0200 (Central European Summer Time),1629821814845,0.7835833333333333,NA,attention_trial,1
2876,,4058,22,0,1629821861860,NA,259,male,-1,strongly disagree,strongly agree,NA,NA,NA,NA,NA,NA,NA,I identify with Pro-Gun Enthusiasts,1,Tue Aug 24 2021 18:16:54 GMT+0200 (Central European Summer Time),1629821814845,0.7835833333333333,Gun control,identification_trial,1
2876,,2539,22,0,1629821861860,NA,259,male,-1,strongly disagree,strongly agree,NA,NA,NA,NA,NA,NA,NA,I identify with Feminists,-3,Tue Aug 24 2021 18:16:54 GMT+0200 (Central European Summer Time),1629821814845,0.7835833333333333,Feminism,identification_trial,2
2791,,2959,19,1,1629742010375,NA,259,male,1,Gun control,Feminism,Joe Biden,Immigration and Dreamers,Transgender rights,Drug legalization,The Black Lives Matter movement,Climate change,Taxing religious organization,What's the most important topic for you?,Drug legalization,Mon Aug 23 2021 20:06:42 GMT+0200 (Mitteleuropäische Sommerzeit),1629742002364,0.13351666666666667,NA,topic_choice_trial,1
2791,,7624,19,1,1629742010375,NA,259,male,1,strongly disagree,strongly agree,NA,NA,NA,NA,NA,NA,NA,Adults should have the right to carry a concealed handgun,3,Mon Aug 23 2021 20:06:42 GMT+0200 (Mitteleuropäische Sommerzeit),1629742002364,0.13351666666666667,Gun control,group_rating,1
2791,,22654,19,1,1629742010375,NA,259,male,1,Definitely call the police and report the robber,Definitely do nothing and leave the robber alone,NA,NA,NA,NA,NA,NA,NA,"Imagine you have witnessed a man rob a bank. However, you then saw him do something unexpected with the money. He donated it all to a run-down orphanage that would benefit greatly from the money. You must decide whether to call the police and report the robber or do nothing and leave the robber alone.",3,Mon Aug 23 2021 20:06:42 GMT+0200 (Mitteleuropäische Sommerzeit),1629742002364,0.13351666666666667,NA,dilemma_trial,1
2791,,3827,19,1,1629742010375,NA,259,male,1,I have a very bad feeling,I have a very good feeling,NA,NA,NA,NA,NA,NA,NA,How do you feel about your choice?,2,Mon Aug 23 2021 20:06:42 GMT+0200 (Mitteleuropäische Sommerzeit),1629742002364,0.13351666666666667,NA,feeling_trial,1
2791,,14433,19,1,1629742010375,Participants chose which action they preferred,259,male,1,Participants chose which action they preferred,"Due to a computer error, participants were not allocated equally to imagine performing the different actions",No data was saved during the experiment.,The participants completed the experiment with their eyes closed.,NA,NA,NA,NA,NA,"As mentioned before, this study is a follow-up to a previous study. Given the information provided in the instructions, which of the following statements about the previous study are true?",Participants chose which action they preferred,Mon Aug 23 2021 20:06:42 GMT+0200 (Mitteleuropäische Sommerzeit),1629742002364,0.13351666666666667,NA,attention_trial,1
2791,,9835,19,1,1629742010375,NA,259,male,1,strongly disagree,strongly agree,NA,NA,NA,NA,NA,NA,NA,I identify with Pro-Gun Enthusiasts,3,Mon Aug 23 2021 20:06:42 GMT+0200 (Mitteleuropäische Sommerzeit),1629742002364,0.13351666666666667,Gun control,identification_trial,1
2791,,10677,19,1,1629742010375,NA,259,male,1,strongly disagree,strongly agree,NA,NA,NA,NA,NA,NA,NA,I identify with Feminists,-2,Mon Aug 23 2021 20:06:42 GMT+0200 (Mitteleuropäische Sommerzeit),1629742002364,0.13351666666666667,Feminism,identification_trial,2
2787,,989,23,0,1629724120677,NA,259,male,-1,Gun control,Feminism,Joe Biden,Immigration and Dreamers,Transgender rights,Drug legalization,The Black Lives Matter movement,Climate change,Taxing religious organization,What's the most important topic for you?,Drug legalization,Mon Aug 23 2021 14:05:39 GMT+0100 (British Summer Time),1629723939185,3.0248666666666666,NA,topic_choice_trial,1
2787,,3617,23,0,1629724120677,NA,259,male,-1,strongly disagree,strongly agree,NA,NA,NA,NA,NA,NA,NA,Adults should have the right to carry a concealed handgun,5,Mon Aug 23 2021 14:05:39 GMT+0100 (British Summer Time),1629723939185,3.0248666666666666,Gun control,group_rating,1
2787,,2145,23,0,1629724120677,NA,259,male,-1,Definitely call the police and report the robber,Definitely do nothing and leave the robber alone,NA,NA,NA,NA,NA,NA,NA,"Imagine you have witnessed a man rob a bank. However, you then saw him do something unexpected with the money. He donated it all to a run-down orphanage that would benefit greatly from the money. You must decide whether to call the police and report the robber or do nothing and leave the robber alone.",-2,Mon Aug 23 2021 14:05:39 GMT+0100 (British Summer Time),1629723939185,3.0248666666666666,NA,dilemma_trial,1
2787,,3996,23,0,1629724120677,NA,259,male,-1,I have a very bad feeling,I have a very good feeling,NA,NA,NA,NA,NA,NA,NA,How do you feel about your choice?,2,Mon Aug 23 2021 14:05:39 GMT+0100 (British Summer Time),1629723939185,3.0248666666666666,NA,feeling_trial,1
2787,,3170,23,0,1629724120677,Participants chose which action they preferred,259,male,-1,Participants chose which action they preferred,"Due to a computer error, participants were not allocated equally to imagine performing the different actions",No data was saved during the experiment.,The participants completed the experiment with their eyes closed.,NA,NA,NA,NA,NA,"As mentioned before, this study is a follow-up to a previous study. Given the information provided in the instructions, which of the following statements about the previous study are true?",No data was saved during the experiment.,Mon Aug 23 2021 14:05:39 GMT+0100 (British Summer Time),1629723939185,3.0248666666666666,NA,attention_trial,1
2787,,3235,23,0,1629724120677,NA,259,male,-1,strongly disagree,strongly agree,NA,NA,NA,NA,NA,NA,NA,I identify with Pro-Gun Enthusiasts,3,Mon Aug 23 2021 14:05:39 GMT+0100 (British Summer Time),1629723939185,3.0248666666666666,Gun control,identification_trial,1
2787,,1027,23,0,1629724120677,NA,259,male,-1,strongly disagree,strongly agree,NA,NA,NA,NA,NA,NA,NA,I identify with Feminists,-2,Mon Aug 23 2021 14:05:39 GMT+0100 (British Summer Time),1629723939185,3.0248666666666666,Feminism,identification_trial,2
2781,,17190,22,0,1629711067031,NA,259,female,1,Gun control,Feminism,Joe Biden,Immigration and Dreamers,Transgender rights,Drug legalization,The Black Lives Matter movement,Climate change,Taxing religious organization,What's the most important topic for you?,Climate change,Mon Aug 23 2021 11:30:20 GMT+0200 (CEST),1629711020721,0.7718333333333334,NA,topic_choice_trial,1
2781,,2788,22,0,1629711067031,NA,259,female,1,strongly disagree,strongly agree,NA,NA,NA,NA,NA,NA,NA,Adults should have the right to carry a concealed handgun,5,Mon Aug 23 2021 11:30:20 GMT+0200 (CEST),1629711020721,0.7718333333333334,Gun control,group_rating,1
2781,,42914,22,0,1629711067031,NA,259,female,1,Definitely call the police and report the robber,Definitely do nothing and leave the robber alone,NA,NA,NA,NA,NA,NA,NA,"Imagine you have witnessed a man rob a bank. However, you then saw him do something unexpected with the money. He donated it all to a run-down orphanage that would benefit greatly from the money. You must decide whether to call the police and report the robber or do nothing and leave the robber alone.",-2,Mon Aug 23 2021 11:30:20 GMT+0200 (CEST),1629711020721,0.7718333333333334,NA,dilemma_trial,1
2781,,8717,22,0,1629711067031,NA,259,female,1,I have a very bad feeling,I have a very good feeling,NA,NA,NA,NA,NA,NA,NA,How do you feel about your choice?,1,Mon Aug 23 2021 11:30:20 GMT+0200 (CEST),1629711020721,0.7718333333333334,NA,feeling_trial,1
2781,,156102,22,0,1629711067031,Participants chose which action they preferred,259,female,1,Participants chose which action they preferred,"Due to a computer error, participants were not allocated equally to imagine performing the different actions",No data was saved during the experiment.,The participants completed the experiment with their eyes closed.,NA,NA,NA,NA,NA,"As mentioned before, this study is a follow-up to a previous study. Given the information provided in the instructions, which of the following statements about the previous study are true?",Participants chose which action they preferred,Mon Aug 23 2021 11:30:20 GMT+0200 (CEST),1629711020721,0.7718333333333334,NA,attention_trial,1
2781,,5130,22,0,1629711067031,NA,259,female,1,strongly disagree,strongly agree,NA,NA,NA,NA,NA,NA,NA,I identify with Pro-Gun Enthusiasts,3,Mon Aug 23 2021 11:30:20 GMT+0200 (CEST),1629711020721,0.7718333333333334,Gun control,identification_trial,1
2781,,2634,22,0,1629711067031,NA,259,female,1,strongly disagree,strongly agree,NA,NA,NA,NA,NA,NA,NA,I identify with Feminists,-3,Mon Aug 23 2021 11:30:20 GMT+0200 (CEST),1629711020721,0.7718333333333334,Feminism,identification_trial,2
2773,,57474,60,1,1629654235780,NA,259,female,1,Gun control,Feminism,Joe Biden,Immigration and Dreamers,Transgender rights,Drug legalization,The Black Lives Matter movement,Climate change,Taxing religious organization,What's the most important topic for you?,Climate change,Sun Aug 22 2021 19:42:26 GMT+0200 (Mitteleuropäische Sommerzeit),1629654146490,1.4881666666666666,NA,topic_choice_trial,1
2773,,23374,60,1,1629654235780,NA,259,female,1,strongly disagree,strongly agree,NA,NA,NA,NA,NA,NA,NA,Adults should have the right to carry a concealed handgun,4,Sun Aug 22 2021 19:42:26 GMT+0200 (Mitteleuropäische Sommerzeit),1629654146490,1.4881666666666666,Gun control,group_rating,1
2773,,200968,60,1,1629654235780,NA,259,female,1,Definitely call the police and report the robber,Definitely do nothing and leave the robber alone,NA,NA,NA,NA,NA,NA,NA,"Imagine you have witnessed a man rob a bank. However, you then saw him do something unexpected with the money. He donated it all to a run-down orphanage that would benefit greatly from the money. You must decide whether to call the police and report the robber or do nothing and leave the robber alone.",-2,Sun Aug 22 2021 19:42:26 GMT+0200 (Mitteleuropäische Sommerzeit),1629654146490,1.4881666666666666,NA,dilemma_trial,1
2773,,17024,60,1,1629654235780,NA,259,female,1,I have a very bad feeling,I have a very good feeling,NA,NA,NA,NA,NA,NA,NA,How do you feel about your choice?,-1,Sun Aug 22 2021 19:42:26 GMT+0200 (Mitteleuropäische Sommerzeit),1629654146490,1.4881666666666666,NA,feeling_trial,1
2773,,154784,60,1,1629654235780,Participants chose which action they preferred,259,female,1,Participants chose which action they preferred,"Due to a computer error, participants were not allocated equally to imagine performing the different actions",No data was saved during the experiment.,The participants completed the experiment with their eyes closed.,NA,NA,NA,NA,NA,"As mentioned before, this study is a follow-up to a previous study. Given the information provided in the instructions, which of the following statements about the previous study are true?",Participants chose which action they preferred,Sun Aug 22 2021 19:42:26 GMT+0200 (Mitteleuropäische Sommerzeit),1629654146490,1.4881666666666666,NA,attention_trial,1
2773,,15846,60,1,1629654235780,NA,259,female,1,strongly disagree,strongly agree,NA,NA,NA,NA,NA,NA,NA,I identify with Pro-Gun Enthusiasts,-2,Sun Aug 22 2021 19:42:26 GMT+0200 (Mitteleuropäische Sommerzeit),1629654146490,1.4881666666666666,Gun control,identification_trial,1
2773,,282289,60,1,1629654235780,NA,259,female,1,strongly disagree,strongly agree,NA,NA,NA,NA,NA,NA,NA,I identify with Feminists,-3,Sun Aug 22 2021 19:42:26 GMT+0200 (Mitteleuropäische Sommerzeit),1629654146490,1.4881666666666666,Feminism,identification_trial,2
2771,,228412,27,0,1629652055123,NA,259,male,1,Gun control,Feminism,Joe Biden,Immigration and Dreamers,Transgender rights,Drug legalization,The Black Lives Matter movement,Climate change,Taxing religious organization,What's the most important topic for you?,Climate change,Sun Aug 22 2021 19:06:49 GMT+0200 (CEST),1629652009084,0.7673166666666666,NA,topic_choice_trial,1
2771,,7578,27,0,1629652055123,NA,259,male,1,strongly disagree,strongly agree,NA,NA,NA,NA,NA,NA,NA,Adults should have the right to carry a concealed handgun,5,Sun Aug 22 2021 19:06:49 GMT+0200 (CEST),1629652009084,0.7673166666666666,Gun control,group_rating,1
2771,,38635,27,0,1629652055123,NA,259,male,1,Definitely call the police and report the robber,Definitely do nothing and leave the robber alone,NA,NA,NA,NA,NA,NA,NA,"Imagine you have witnessed a man rob a bank. However, you then saw him do something unexpected with the money. He donated it all to a run-down orphanage that would benefit greatly from the money. You must decide whether to call the police and report the robber or do nothing and leave the robber alone.",3,Sun Aug 22 2021 19:06:49 GMT+0200 (CEST),1629652009084,0.7673166666666666,NA,dilemma_trial,1
2771,,10414,27,0,1629652055123,NA,259,male,1,I have a very bad feeling,I have a very good feeling,NA,NA,NA,NA,NA,NA,NA,How do you feel about your choice?,1,Sun Aug 22 2021 19:06:49 GMT+0200 (CEST),1629652009084,0.7673166666666666,NA,feeling_trial,1
2771,,44512,27,0,1629652055123,Participants chose which action they preferred,259,male,1,Participants chose which action they preferred,"Due to a computer error, participants were not allocated equally to imagine performing the different actions",No data was saved during the experiment.,The participants completed the experiment with their eyes closed.,NA,NA,NA,NA,NA,"As mentioned before, this study is a follow-up to a previous study. Given the information provided in the instructions, which of the following statements about the previous study are true?",Participants chose which action they preferred,Sun Aug 22 2021 19:06:49 GMT+0200 (CEST),1629652009084,0.7673166666666666,NA,attention_trial,1
2771,,32001,27,0,1629652055123,NA,259,male,1,strongly disagree,strongly agree,NA,NA,NA,NA,NA,NA,NA,I identify with Pro-Gun Enthusiasts,-1,Sun Aug 22 2021 19:06:49 GMT+0200 (CEST),1629652009084,0.7673166666666666,Gun control,identification_trial,1
2771,,6748,27,0,1629652055123,NA,259,male,1,strongly disagree,strongly agree,NA,NA,NA,NA,NA,NA,NA,I identify with Feminists,-3,Sun Aug 22 2021 19:06:49 GMT+0200 (CEST),1629652009084,0.7673166666666666,Feminism,identification_trial,2
2724,,52087,21,0,1629570975579,NA,259,female,-1,Gun control,Feminism,Joe Biden,Immigration and Dreamers,Transgender rights,Drug legalization,The Black Lives Matter movement,Climate change,Taxing religious organization,What's the most important topic for you?,The Black Lives Matter movement,Sat Aug 21 2021 20:35:47 GMT+0200 (CEST),1629570947346,0.47055,NA,topic_choice_trial,1
2724,,43170,21,0,1629570975579,NA,259,female,-1,strongly disagree,strongly agree,NA,NA,NA,NA,NA,NA,NA,Adults should have the right to carry a concealed handgun,-3,Sat Aug 21 2021 20:35:47 GMT+0200 (CEST),1629570947346,0.47055,Gun control,group_rating,1
2724,,151645,21,0,1629570975579,NA,259,female,-1,Definitely call the police and report the robber,Definitely do nothing and leave the robber alone,NA,NA,NA,NA,NA,NA,NA,"Imagine you have witnessed a man rob a bank. However, you then saw him do something unexpected with the money. He donated it all to a run-down orphanage that would benefit greatly from the money. You must decide whether to call the police and report the robber or do nothing and leave the robber alone.",-3,Sat Aug 21 2021 20:35:47 GMT+0200 (CEST),1629570947346,0.47055,NA,dilemma_trial,1
2724,,6300,21,0,1629570975579,NA,259,female,-1,I have a very bad feeling,I have a very good feeling,NA,NA,NA,NA,NA,NA,NA,How do you feel about your choice?,2,Sat Aug 21 2021 20:35:47 GMT+0200 (CEST),1629570947346,0.47055,NA,feeling_trial,1
2724,,43025,21,0,1629570975579,Participants chose which action they preferred,259,female,-1,Participants chose which action they preferred,"Due to a computer error, participants were not allocated equally to imagine performing the different actions",No data was saved during the experiment.,The participants completed the experiment with their eyes closed.,NA,NA,NA,NA,NA,"As mentioned before, this study is a follow-up to a previous study. Given the information provided in the instructions, which of the following statements about the previous study are true?",Participants chose which action they preferred,Sat Aug 21 2021 20:35:47 GMT+0200 (CEST),1629570947346,0.47055,NA,attention_trial,1
2724,,9422,21,0,1629570975579,NA,259,female,-1,strongly disagree,strongly agree,NA,NA,NA,NA,NA,NA,NA,I identify with Pro-Gun Enthusiasts,2,Sat Aug 21 2021 20:35:47 GMT+0200 (CEST),1629570947346,0.47055,Gun control,identification_trial,1
2724,,3296,21,0,1629570975579,NA,259,female,-1,strongly disagree,strongly agree,NA,NA,NA,NA,NA,NA,NA,I identify with Feminists,2,Sat Aug 21 2021 20:35:47 GMT+0200 (CEST),1629570947346,0.47055,Feminism,identification_trial,2
2718,,2869,20,0,1629563535836,NA,259,female,-1,Gun control,Feminism,Joe Biden,Immigration and Dreamers,Transgender rights,Drug legalization,The Black Lives Matter movement,Climate change,Taxing religious organization,What's the most important topic for you?,Feminism,Sat Aug 21 2021 18:31:52 GMT+0200 (CEST),1629563512334,0.3917,NA,topic_choice_trial,1
2718,,4796,20,0,1629563535836,NA,259,female,-1,strongly disagree,strongly agree,NA,NA,NA,NA,NA,NA,NA,Adults should have the right to carry a concealed handgun,5,Sat Aug 21 2021 18:31:52 GMT+0200 (CEST),1629563512334,0.3917,Gun control,group_rating,1
2718,,48030,20,0,1629563535836,NA,259,female,-1,Definitely call the police and report the robber,Definitely do nothing and leave the robber alone,NA,NA,NA,NA,NA,NA,NA,"Imagine you have witnessed a man rob a bank. However, you then saw him do something unexpected with the money. He donated it all to a run-down orphanage that would benefit greatly from the money. You must decide whether to call the police and report the robber or do nothing and leave the robber alone.",2,Sat Aug 21 2021 18:31:52 GMT+0200 (CEST),1629563512334,0.3917,NA,dilemma_trial,1
2718,,32485,20,0,1629563535836,NA,259,female,-1,I have a very bad feeling,I have a very good feeling,NA,NA,NA,NA,NA,NA,NA,How do you feel about your choice?,3,Sat Aug 21 2021 18:31:52 GMT+0200 (CEST),1629563512334,0.3917,NA,feeling_trial,1
2718,,80861,20,0,1629563535836,Participants chose which action they preferred,259,female,-1,Participants chose which action they preferred,"Due to a computer error, participants were not allocated equally to imagine performing the different actions",No data was saved during the experiment.,The participants completed the experiment with their eyes closed.,NA,NA,NA,NA,NA,"As mentioned before, this study is a follow-up to a previous study. Given the information provided in the instructions, which of the following statements about the previous study are true?",Participants chose which action they preferred,Sat Aug 21 2021 18:31:52 GMT+0200 (CEST),1629563512334,0.3917,NA,attention_trial,1
2718,,12490,20,0,1629563535836,NA,259,female,-1,strongly disagree,strongly agree,NA,NA,NA,NA,NA,NA,NA,I identify with Pro-Gun Enthusiasts,3,Sat Aug 21 2021 18:31:52 GMT+0200 (CEST),1629563512334,0.3917,Gun control,identification_trial,1
2718,,9051,20,0,1629563535836,NA,259,female,-1,strongly disagree,strongly agree,NA,NA,NA,NA,NA,NA,NA,I identify with Feminists,-3,Sat Aug 21 2021 18:31:52 GMT+0200 (CEST),1629563512334,0.3917,Feminism,identification_trial,2
2695,,36962,20,1,1629403541901,NA,259,female,1,Gun control,Feminism,Joe Biden,Immigration and Dreamers,Transgender rights,Drug legalization,The Black Lives Matter movement,Climate change,Taxing religious organization,What's the most important topic for you?,Immigration and Dreamers,Thu Aug 19 2021 22:05:19 GMT+0200 (CEST),1629403519363,0.3756333333333333,NA,topic_choice_trial,1
2695,,8981,20,1,1629403541901,NA,259,female,1,strongly disagree,strongly agree,NA,NA,NA,NA,NA,NA,NA,Adults should have the right to carry a concealed handgun,5,Thu Aug 19 2021 22:05:19 GMT+0200 (CEST),1629403519363,0.3756333333333333,Gun control,group_rating,1
2695,,58576,20,1,1629403541901,NA,259,female,1,Definitely call the police and report the robber,Definitely do nothing and leave the robber alone,NA,NA,NA,NA,NA,NA,NA,"Imagine you have witnessed a man rob a bank. However, you then saw him do something unexpected with the money. He donated it all to a run-down orphanage that would benefit greatly from the money. You must decide whether to call the police and report the robber or do nothing and leave the robber alone.",1,Thu Aug 19 2021 22:05:19 GMT+0200 (CEST),1629403519363,0.3756333333333333,NA,dilemma_trial,1
2695,,5958,20,1,1629403541901,NA,259,female,1,I have a very bad feeling,I have a very good feeling,NA,NA,NA,NA,NA,NA,NA,How do you feel about your choice?,1,Thu Aug 19 2021 22:05:19 GMT+0200 (CEST),1629403519363,0.3756333333333333,NA,feeling_trial,1
2695,,20761,20,1,1629403541901,Participants chose which action they preferred,259,female,1,Participants chose which action they preferred,"Due to a computer error, participants were not allocated equally to imagine performing the different actions",No data was saved during the experiment.,The participants completed the experiment with their eyes closed.,NA,NA,NA,NA,NA,"As mentioned before, this study is a follow-up to a previous study. Given the information provided in the instructions, which of the following statements about the previous study are true?",Participants chose which action they preferred,Thu Aug 19 2021 22:05:19 GMT+0200 (CEST),1629403519363,0.3756333333333333,NA,attention_trial,1
2695,,5939,20,1,1629403541901,NA,259,female,1,strongly disagree,strongly agree,NA,NA,NA,NA,NA,NA,NA,I identify with Pro-Gun Enthusiasts,3,Thu Aug 19 2021 22:05:19 GMT+0200 (CEST),1629403519363,0.3756333333333333,Gun control,identification_trial,1
2695,,6131,20,1,1629403541901,NA,259,female,1,strongly disagree,strongly agree,NA,NA,NA,NA,NA,NA,NA,I identify with Feminists,3,Thu Aug 19 2021 22:05:19 GMT+0200 (CEST),1629403519363,0.3756333333333333,Feminism,identification_trial,2
2690,,24430,64,1,1629393815545,NA,259,male,1,Gun control,Feminism,Joe Biden,Immigration and Dreamers,Transgender rights,Drug legalization,The Black Lives Matter movement,Climate change,Taxing religious organization,What's the most important topic for you?,Climate change,Thu Aug 19 2021 13:23:11 GMT-0400 (Eastern Daylight Time),1629393791267,0.40463333333333334,NA,topic_choice_trial,1
2690,,2654,64,1,1629393815545,NA,259,male,1,strongly disagree,strongly agree,NA,NA,NA,NA,NA,NA,NA,Adults should have the right to carry a concealed handgun,5,Thu Aug 19 2021 13:23:11 GMT-0400 (Eastern Daylight Time),1629393791267,0.40463333333333334,Gun control,group_rating,1
2690,,57778,64,1,1629393815545,NA,259,male,1,Definitely call the police and report the robber,Definitely do nothing and leave the robber alone,NA,NA,NA,NA,NA,NA,NA,"Imagine you have witnessed a man rob a bank. However, you then saw him do something unexpected with the money. He donated it all to a run-down orphanage that would benefit greatly from the money. You must decide whether to call the police and report the robber or do nothing and leave the robber alone.",-3,Thu Aug 19 2021 13:23:11 GMT-0400 (Eastern Daylight Time),1629393791267,0.40463333333333334,NA,dilemma_trial,1
2690,,4119,64,1,1629393815545,NA,259,male,1,I have a very bad feeling,I have a very good feeling,NA,NA,NA,NA,NA,NA,NA,How do you feel about your choice?,2,Thu Aug 19 2021 13:23:11 GMT-0400 (Eastern Daylight Time),1629393791267,0.40463333333333334,NA,feeling_trial,1
2690,,21480,64,1,1629393815545,Participants chose which action they preferred,259,male,1,Participants chose which action they preferred,"Due to a computer error, participants were not allocated equally to imagine performing the different actions",No data was saved during the experiment.,The participants completed the experiment with their eyes closed.,NA,NA,NA,NA,NA,"As mentioned before, this study is a follow-up to a previous study. Given the information provided in the instructions, which of the following statements about the previous study are true?",Participants chose which action they preferred,Thu Aug 19 2021 13:23:11 GMT-0400 (Eastern Daylight Time),1629393791267,0.40463333333333334,NA,attention_trial,1
2690,,23993,64,1,1629393815545,NA,259,male,1,strongly disagree,strongly agree,NA,NA,NA,NA,NA,NA,NA,I identify with Pro-Gun Enthusiasts,-3,Thu Aug 19 2021 13:23:11 GMT-0400 (Eastern Daylight Time),1629393791267,0.40463333333333334,Gun control,identification_trial,1
2690,,5197,64,1,1629393815545,NA,259,male,1,strongly disagree,strongly agree,NA,NA,NA,NA,NA,NA,NA,I identify with Feminists,-3,Thu Aug 19 2021 13:23:11 GMT-0400 (Eastern Daylight Time),1629393791267,0.40463333333333334,Feminism,identification_trial,2
2681,,27598,21,1,1629332891951,NA,259,male,1,Gun control,Feminism,Joe Biden,Immigration and Dreamers,Transgender rights,Drug legalization,The Black Lives Matter movement,Climate change,Taxing religious organization,What's the most important topic for you?,Climate change,Thu Aug 19 2021 02:26:44 GMT+0200 (Mitteleuropäische Sommerzeit),1629332804918,1.45055,NA,topic_choice_trial,1
2681,,4242,21,1,1629332891951,NA,259,male,1,strongly disagree,strongly agree,NA,NA,NA,NA,NA,NA,NA,Adults should have the right to carry a concealed handgun,5,Thu Aug 19 2021 02:26:44 GMT+0200 (Mitteleuropäische Sommerzeit),1629332804918,1.45055,Gun control,group_rating,1
2681,,63246,21,1,1629332891951,NA,259,male,1,Definitely call the police and report the robber,Definitely do nothing and leave the robber alone,NA,NA,NA,NA,NA,NA,NA,"Imagine you have witnessed a man rob a bank. However, you then saw him do something unexpected with the money. He donated it all to a run-down orphanage that would benefit greatly from the money. You must decide whether to call the police and report the robber or do nothing and leave the robber alone.",1,Thu Aug 19 2021 02:26:44 GMT+0200 (Mitteleuropäische Sommerzeit),1629332804918,1.45055,NA,dilemma_trial,1
2681,,25260,21,1,1629332891951,NA,259,male,1,I have a very bad feeling,I have a very good feeling,NA,NA,NA,NA,NA,NA,NA,How do you feel about your choice?,1,Thu Aug 19 2021 02:26:44 GMT+0200 (Mitteleuropäische Sommerzeit),1629332804918,1.45055,NA,feeling_trial,1
2681,,42125,21,1,1629332891951,Participants chose which action they preferred,259,male,1,Participants chose which action they preferred,"Due to a computer error, participants were not allocated equally to imagine performing the different actions",No data was saved during the experiment.,The participants completed the experiment with their eyes closed.,NA,NA,NA,NA,NA,"As mentioned before, this study is a follow-up to a previous study. Given the information provided in the instructions, which of the following statements about the previous study are true?",Participants chose which action they preferred,Thu Aug 19 2021 02:26:44 GMT+0200 (Mitteleuropäische Sommerzeit),1629332804918,1.45055,NA,attention_trial,1
2681,,18386,21,1,1629332891951,NA,259,male,1,strongly disagree,strongly agree,NA,NA,NA,NA,NA,NA,NA,I identify with Pro-Gun Enthusiasts,2,Thu Aug 19 2021 02:26:44 GMT+0200 (Mitteleuropäische Sommerzeit),1629332804918,1.45055,Gun control,identification_trial,1
2681,,5781,21,1,1629332891951,NA,259,male,1,strongly disagree,strongly agree,NA,NA,NA,NA,NA,NA,NA,I identify with Feminists,-3,Thu Aug 19 2021 02:26:44 GMT+0200 (Mitteleuropäische Sommerzeit),1629332804918,1.45055,Feminism,identification_trial,2
2678,,4172,22,0,1629305702060,NA,259,male,1,Gun control,Feminism,Joe Biden,Immigration and Dreamers,Transgender rights,Drug legalization,The Black Lives Matter movement,Climate change,Taxing religious organization,What's the most important topic for you?,Transgender rights,Wed Aug 18 2021 17:54:44 GMT+0100 (British Summer Time),1629305684470,0.2931666666666667,NA,topic_choice_trial,1
2678,,13291,22,0,1629305702060,NA,259,male,1,strongly disagree,strongly agree,NA,NA,NA,NA,NA,NA,NA,Adults should have the right to carry a concealed handgun,5,Wed Aug 18 2021 17:54:44 GMT+0100 (British Summer Time),1629305684470,0.2931666666666667,Gun control,group_rating,1
2678,,28033,22,0,1629305702060,NA,259,male,1,Definitely call the police and report the robber,Definitely do nothing and leave the robber alone,NA,NA,NA,NA,NA,NA,NA,"Imagine you have witnessed a man rob a bank. However, you then saw him do something unexpected with the money. He donated it all to a run-down orphanage that would benefit greatly from the money. You must decide whether to call the police and report the robber or do nothing and leave the robber alone.",-1,Wed Aug 18 2021 17:54:44 GMT+0100 (British Summer Time),1629305684470,0.2931666666666667,NA,dilemma_trial,1
2678,,4731,22,0,1629305702060,NA,259,male,1,I have a very bad feeling,I have a very good feeling,NA,NA,NA,NA,NA,NA,NA,How do you feel about your choice?,1,Wed Aug 18 2021 17:54:44 GMT+0100 (British Summer Time),1629305684470,0.2931666666666667,NA,feeling_trial,1
2678,,14702,22,0,1629305702060,Participants chose which action they preferred,259,male,1,Participants chose which action they preferred,"Due to a computer error, participants were not allocated equally to imagine performing the different actions",No data was saved during the experiment.,The participants completed the experiment with their eyes closed.,NA,NA,NA,NA,NA,"As mentioned before, this study is a follow-up to a previous study. Given the information provided in the instructions, which of the following statements about the previous study are true?",Participants chose which action they preferred,Wed Aug 18 2021 17:54:44 GMT+0100 (British Summer Time),1629305684470,0.2931666666666667,NA,attention_trial,1
2678,,27774,22,0,1629305702060,NA,259,male,1,strongly disagree,strongly agree,NA,NA,NA,NA,NA,NA,NA,I identify with Pro-Gun Enthusiasts,2,Wed Aug 18 2021 17:54:44 GMT+0100 (British Summer Time),1629305684470,0.2931666666666667,Gun control,identification_trial,1
2678,,3037,22,0,1629305702060,NA,259,male,1,strongly disagree,strongly agree,NA,NA,NA,NA,NA,NA,NA,I identify with Feminists,-3,Wed Aug 18 2021 17:54:44 GMT+0100 (British Summer Time),1629305684470,0.2931666666666667,Feminism,identification_trial,2
2676,,11589,25,0,1629300679862,NA,259,male,-1,Gun control,Feminism,Joe Biden,Immigration and Dreamers,Transgender rights,Drug legalization,The Black Lives Matter movement,Climate change,Taxing religious organization,What's the most important topic for you?,Joe Biden,Wed Aug 18 2021 17:30:29 GMT+0200 (Central European Summer Time),1629300629781,0.8346833333333333,NA,topic_choice_trial,1
2676,,13016,25,0,1629300679862,NA,259,male,-1,strongly disagree,strongly agree,NA,NA,NA,NA,NA,NA,NA,Adults should have the right to carry a concealed handgun,1,Wed Aug 18 2021 17:30:29 GMT+0200 (Central European Summer Time),1629300629781,0.8346833333333333,Gun control,group_rating,1
2676,,33910,25,0,1629300679862,NA,259,male,-1,Definitely call the police and report the robber,Definitely do nothing and leave the robber alone,NA,NA,NA,NA,NA,NA,NA,"Imagine you have witnessed a man rob a bank. However, you then saw him do something unexpected with the money. He donated it all to a run-down orphanage that would benefit greatly from the money. You must decide whether to call the police and report the robber or do nothing and leave the robber alone.",2,Wed Aug 18 2021 17:30:29 GMT+0200 (Central European Summer Time),1629300629781,0.8346833333333333,NA,dilemma_trial,1
2676,,6406,25,0,1629300679862,NA,259,male,-1,I have a very bad feeling,I have a very good feeling,NA,NA,NA,NA,NA,NA,NA,How do you feel about your choice?,3,Wed Aug 18 2021 17:30:29 GMT+0200 (Central European Summer Time),1629300629781,0.8346833333333333,NA,feeling_trial,1
2676,,19314,25,0,1629300679862,Participants chose which action they preferred,259,male,-1,Participants chose which action they preferred,"Due to a computer error, participants were not allocated equally to imagine performing the different actions",No data was saved during the experiment.,The participants completed the experiment with their eyes closed.,NA,NA,NA,NA,NA,"As mentioned before, this study is a follow-up to a previous study. Given the information provided in the instructions, which of the following statements about the previous study are true?",Participants chose which action they preferred,Wed Aug 18 2021 17:30:29 GMT+0200 (Central European Summer Time),1629300629781,0.8346833333333333,NA,attention_trial,1
2676,,10228,25,0,1629300679862,NA,259,male,-1,strongly disagree,strongly agree,NA,NA,NA,NA,NA,NA,NA,I identify with Pro-Gun Enthusiasts,1,Wed Aug 18 2021 17:30:29 GMT+0200 (Central European Summer Time),1629300629781,0.8346833333333333,Gun control,identification_trial,1
2676,,5220,25,0,1629300679862,NA,259,male,-1,strongly disagree,strongly agree,NA,NA,NA,NA,NA,NA,NA,I identify with Feminists,-1,Wed Aug 18 2021 17:30:29 GMT+0200 (Central European Summer Time),1629300629781,0.8346833333333333,Feminism,identification_trial,2
2675,,13346,41,0,1629293946156,NA,259,male,1,Gun control,Feminism,Joe Biden,Immigration and Dreamers,Transgender rights,Drug legalization,The Black Lives Matter movement,Climate change,Taxing religious organization,What's the most important topic for you?,Drug legalization,Wed Aug 18 2021 09:38:57 GMT-0400 (Eastern Daylight Time),1629293937402,0.1459,NA,topic_choice_trial,1
2675,,4120,41,0,1629293946156,NA,259,male,1,strongly disagree,strongly agree,NA,NA,NA,NA,NA,NA,NA,Adults should have the right to carry a concealed handgun,5,Wed Aug 18 2021 09:38:57 GMT-0400 (Eastern Daylight Time),1629293937402,0.1459,Gun control,group_rating,1
2675,,21221,41,0,1629293946156,NA,259,male,1,Definitely call the police and report the robber,Definitely do nothing and leave the robber alone,NA,NA,NA,NA,NA,NA,NA,"Imagine you have witnessed a man rob a bank. However, you then saw him do something unexpected with the money. He donated it all to a run-down orphanage that would benefit greatly from the money. You must decide whether to call the police and report the robber or do nothing and leave the robber alone.",2,Wed Aug 18 2021 09:38:57 GMT-0400 (Eastern Daylight Time),1629293937402,0.1459,NA,dilemma_trial,1
2675,,4375,41,0,1629293946156,NA,259,male,1,I have a very bad feeling,I have a very good feeling,NA,NA,NA,NA,NA,NA,NA,How do you feel about your choice?,2,Wed Aug 18 2021 09:38:57 GMT-0400 (Eastern Daylight Time),1629293937402,0.1459,NA,feeling_trial,1
2675,,25463,41,0,1629293946156,Participants chose which action they preferred,259,male,1,Participants chose which action they preferred,"Due to a computer error, participants were not allocated equally to imagine performing the different actions",No data was saved during the experiment.,The participants completed the experiment with their eyes closed.,NA,NA,NA,NA,NA,"As mentioned before, this study is a follow-up to a previous study. Given the information provided in the instructions, which of the following statements about the previous study are true?",Participants chose which action they preferred,Wed Aug 18 2021 09:38:57 GMT-0400 (Eastern Daylight Time),1629293937402,0.1459,NA,attention_trial,1
2675,,6338,41,0,1629293946156,NA,259,male,1,strongly disagree,strongly agree,NA,NA,NA,NA,NA,NA,NA,I identify with Pro-Gun Enthusiasts,3,Wed Aug 18 2021 09:38:57 GMT-0400 (Eastern Daylight Time),1629293937402,0.1459,Gun control,identification_trial,1
2675,,4164,41,0,1629293946156,NA,259,male,1,strongly disagree,strongly agree,NA,NA,NA,NA,NA,NA,NA,I identify with Feminists,-3,Wed Aug 18 2021 09:38:57 GMT-0400 (Eastern Daylight Time),1629293937402,0.1459,Feminism,identification_trial,2
2673,,10019,15,0,1629291846359,NA,259,other,-1,Gun control,Feminism,Joe Biden,Immigration and Dreamers,Transgender rights,Drug legalization,The Black Lives Matter movement,Climate change,Taxing religious organization,What's the most important topic for you?,The Black Lives Matter movement,Wed Aug 18 2021 06:03:51 GMT-0700 (PDT),1629291831407,0.2492,NA,topic_choice_trial,1
2673,,7130,15,0,1629291846359,NA,259,other,-1,strongly disagree,strongly agree,NA,NA,NA,NA,NA,NA,NA,Adults should have the right to carry a concealed handgun,-5,Wed Aug 18 2021 06:03:51 GMT-0700 (PDT),1629291831407,0.2492,Gun control,group_rating,1
2673,,30153,15,0,1629291846359,NA,259,other,-1,Definitely call the police and report the robber,Definitely do nothing and leave the robber alone,NA,NA,NA,NA,NA,NA,NA,"Imagine you have witnessed a man rob a bank. However, you then saw him do something unexpected with the money. He donated it all to a run-down orphanage that would benefit greatly from the money. You must decide whether to call the police and report the robber or do nothing and leave the robber alone.",1,Wed Aug 18 2021 06:03:51 GMT-0700 (PDT),1629291831407,0.2492,NA,dilemma_trial,1
2673,,3261,15,0,1629291846359,NA,259,other,-1,I have a very bad feeling,I have a very good feeling,NA,NA,NA,NA,NA,NA,NA,How do you feel about your choice?,2,Wed Aug 18 2021 06:03:51 GMT-0700 (PDT),1629291831407,0.2492,NA,feeling_trial,1
2673,,14973,15,0,1629291846359,Participants chose which action they preferred,259,other,-1,Participants chose which action they preferred,"Due to a computer error, participants were not allocated equally to imagine performing the different actions",No data was saved during the experiment.,The participants completed the experiment with their eyes closed.,NA,NA,NA,NA,NA,"As mentioned before, this study is a follow-up to a previous study. Given the information provided in the instructions, which of the following statements about the previous study are true?",Participants chose which action they preferred,Wed Aug 18 2021 06:03:51 GMT-0700 (PDT),1629291831407,0.2492,NA,attention_trial,1
2673,,4112,15,0,1629291846359,NA,259,other,-1,strongly disagree,strongly agree,NA,NA,NA,NA,NA,NA,NA,I identify with Pro-Gun Enthusiasts,3,Wed Aug 18 2021 06:03:51 GMT-0700 (PDT),1629291831407,0.2492,Gun control,identification_trial,1
2673,,3634,15,0,1629291846359,NA,259,other,-1,strongly disagree,strongly agree,NA,NA,NA,NA,NA,NA,NA,I identify with Feminists,-3,Wed Aug 18 2021 06:03:51 GMT-0700 (PDT),1629291831407,0.2492,Feminism,identification_trial,2
2671,,117744,24,1,1629282659120,NA,259,male,1,Gun control,Feminism,Joe Biden,Immigration and Dreamers,Transgender rights,Drug legalization,The Black Lives Matter movement,Climate change,Taxing religious organization,What's the most important topic for you?,Immigration and Dreamers,Wed Aug 18 2021 12:30:20 GMT+0200 (Mitteleuropäische Sommerzeit),1629282620346,0.6462333333333333,NA,topic_choice_trial,1
2671,,12220,24,1,1629282659120,NA,259,male,1,strongly disagree,strongly agree,NA,NA,NA,NA,NA,NA,NA,Adults should have the right to carry a concealed handgun,5,Wed Aug 18 2021 12:30:20 GMT+0200 (Mitteleuropäische Sommerzeit),1629282620346,0.6462333333333333,Gun control,group_rating,1
2671,,57090,24,1,1629282659120,NA,259,male,1,Definitely call the police and report the robber,Definitely do nothing and leave the robber alone,NA,NA,NA,NA,NA,NA,NA,"Imagine you have witnessed a man rob a bank. However, you then saw him do something unexpected with the money. He donated it all to a run-down orphanage that would benefit greatly from the money. You must decide whether to call the police and report the robber or do nothing and leave the robber alone.",2,Wed Aug 18 2021 12:30:20 GMT+0200 (Mitteleuropäische Sommerzeit),1629282620346,0.6462333333333333,NA,dilemma_trial,1
2671,,7386,24,1,1629282659120,NA,259,male,1,I have a very bad feeling,I have a very good feeling,NA,NA,NA,NA,NA,NA,NA,How do you feel about your choice?,2,Wed Aug 18 2021 12:30:20 GMT+0200 (Mitteleuropäische Sommerzeit),1629282620346,0.6462333333333333,NA,feeling_trial,1
2671,,84181,24,1,1629282659120,Participants chose which action they preferred,259,male,1,Participants chose which action they preferred,"Due to a computer error, participants were not allocated equally to imagine performing the different actions",No data was saved during the experiment.,The participants completed the experiment with their eyes closed.,NA,NA,NA,NA,NA,"As mentioned before, this study is a follow-up to a previous study. Given the information provided in the instructions, which of the following statements about the previous study are true?",Participants chose which action they preferred,Wed Aug 18 2021 12:30:20 GMT+0200 (Mitteleuropäische Sommerzeit),1629282620346,0.6462333333333333,NA,attention_trial,1
2671,,9798,24,1,1629282659120,NA,259,male,1,strongly disagree,strongly agree,NA,NA,NA,NA,NA,NA,NA,I identify with Pro-Gun Enthusiasts,3,Wed Aug 18 2021 12:30:20 GMT+0200 (Mitteleuropäische Sommerzeit),1629282620346,0.6462333333333333,Gun control,identification_trial,1
2671,,4960,24,1,1629282659120,NA,259,male,1,strongly disagree,strongly agree,NA,NA,NA,NA,NA,NA,NA,I identify with Feminists,-3,Wed Aug 18 2021 12:30:20 GMT+0200 (Mitteleuropäische Sommerzeit),1629282620346,0.6462333333333333,Feminism,identification_trial,2
2662,,16490,13,0,1629265252228,NA,259,male,-1,Gun control,Feminism,Joe Biden,Immigration and Dreamers,Transgender rights,Drug legalization,The Black Lives Matter movement,Climate change,Taxing religious organization,What's the most important topic for you?,Climate change,Tue Aug 17 2021 22:40:41 GMT-0700 (PDT),1629265241817,0.17351666666666668,NA,topic_choice_trial,1
2662,,3943,13,0,1629265252228,NA,259,male,-1,strongly disagree,strongly agree,NA,NA,NA,NA,NA,NA,NA,Adults should have the right to carry a concealed handgun,5,Tue Aug 17 2021 22:40:41 GMT-0700 (PDT),1629265241817,0.17351666666666668,Gun control,group_rating,1
2662,,683603,13,0,1629265252228,NA,259,male,-1,Definitely call the police and report the robber,Definitely do nothing and leave the robber alone,NA,NA,NA,NA,NA,NA,NA,"Imagine you have witnessed a man rob a bank. However, you then saw him do something unexpected with the money. He donated it all to a run-down orphanage that would benefit greatly from the money. You must decide whether to call the police and report the robber or do nothing and leave the robber alone.",-2,Tue Aug 17 2021 22:40:41 GMT-0700 (PDT),1629265241817,0.17351666666666668,NA,dilemma_trial,1
2662,,7605,13,0,1629265252228,NA,259,male,-1,I have a very bad feeling,I have a very good feeling,NA,NA,NA,NA,NA,NA,NA,How do you feel about your choice?,2,Tue Aug 17 2021 22:40:41 GMT-0700 (PDT),1629265241817,0.17351666666666668,NA,feeling_trial,1
2662,,48695,13,0,1629265252228,Participants chose which action they preferred,259,male,-1,Participants chose which action they preferred,"Due to a computer error, participants were not allocated equally to imagine performing the different actions",No data was saved during the experiment.,The participants completed the experiment with their eyes closed.,NA,NA,NA,NA,NA,"As mentioned before, this study is a follow-up to a previous study. Given the information provided in the instructions, which of the following statements about the previous study are true?",Participants chose which action they preferred,Tue Aug 17 2021 22:40:41 GMT-0700 (PDT),1629265241817,0.17351666666666668,NA,attention_trial,1
2662,,15388,13,0,1629265252228,NA,259,male,-1,strongly disagree,strongly agree,NA,NA,NA,NA,NA,NA,NA,I identify with Pro-Gun Enthusiasts,1,Tue Aug 17 2021 22:40:41 GMT-0700 (PDT),1629265241817,0.17351666666666668,Gun control,identification_trial,1
2662,,8345,13,0,1629265252228,NA,259,male,-1,strongly disagree,strongly agree,NA,NA,NA,NA,NA,NA,NA,I identify with Feminists,-3,Tue Aug 17 2021 22:40:41 GMT-0700 (PDT),1629265241817,0.17351666666666668,Feminism,identification_trial,2
2660,,13957,15,1,1629265602581,NA,259,female,1,Gun control,Feminism,Joe Biden,Immigration and Dreamers,Transgender rights,Drug legalization,The Black Lives Matter movement,Climate change,Taxing religious organization,What's the most important topic for you?,Transgender rights,Tue Aug 17 2021 22:46:11 GMT-0700 (PDT),1629265571473,0.5184666666666666,NA,topic_choice_trial,1
2660,,7244,15,1,1629265602581,NA,259,female,1,strongly disagree,strongly agree,NA,NA,NA,NA,NA,NA,NA,Adults should have the right to carry a concealed handgun,5,Tue Aug 17 2021 22:46:11 GMT-0700 (PDT),1629265571473,0.5184666666666666,Gun control,group_rating,1
2660,,44937,15,1,1629265602581,NA,259,female,1,Definitely call the police and report the robber,Definitely do nothing and leave the robber alone,NA,NA,NA,NA,NA,NA,NA,"Imagine you have witnessed a man rob a bank. However, you then saw him do something unexpected with the money. He donated it all to a run-down orphanage that would benefit greatly from the money. You must decide whether to call the police and report the robber or do nothing and leave the robber alone.",-1,Tue Aug 17 2021 22:46:11 GMT-0700 (PDT),1629265571473,0.5184666666666666,NA,dilemma_trial,1
2660,,9552,15,1,1629265602581,NA,259,female,1,I have a very bad feeling,I have a very good feeling,NA,NA,NA,NA,NA,NA,NA,How do you feel about your choice?,-1,Tue Aug 17 2021 22:46:11 GMT-0700 (PDT),1629265571473,0.5184666666666666,NA,feeling_trial,1
2660,,41754,15,1,1629265602581,Participants chose which action they preferred,259,female,1,Participants chose which action they preferred,"Due to a computer error, participants were not allocated equally to imagine performing the different actions",No data was saved during the experiment.,The participants completed the experiment with their eyes closed.,NA,NA,NA,NA,NA,"As mentioned before, this study is a follow-up to a previous study. Given the information provided in the instructions, which of the following statements about the previous study are true?",Participants chose which action they preferred,Tue Aug 17 2021 22:46:11 GMT-0700 (PDT),1629265571473,0.5184666666666666,NA,attention_trial,1
2660,,5798,15,1,1629265602581,NA,259,female,1,strongly disagree,strongly agree,NA,NA,NA,NA,NA,NA,NA,I identify with Pro-Gun Enthusiasts,3,Tue Aug 17 2021 22:46:11 GMT-0700 (PDT),1629265571473,0.5184666666666666,Gun control,identification_trial,1
2660,,5630,15,1,1629265602581,NA,259,female,1,strongly disagree,strongly agree,NA,NA,NA,NA,NA,NA,NA,I identify with Feminists,-3,Tue Aug 17 2021 22:46:11 GMT-0700 (PDT),1629265571473,0.5184666666666666,Feminism,identification_trial,2
2659,,21158,15,1,1629264791441,NA,259,male,-1,Gun control,Feminism,Joe Biden,Immigration and Dreamers,Transgender rights,Drug legalization,The Black Lives Matter movement,Climate change,Taxing religious organization,What's the most important topic for you?,Transgender rights,Tue Aug 17 2021 22:32:51 GMT-0700 (PDT),1629264771282,0.33598333333333336,NA,topic_choice_trial,1
2659,,8909,15,1,1629264791441,NA,259,male,-1,strongly disagree,strongly agree,NA,NA,NA,NA,NA,NA,NA,Adults should have the right to carry a concealed handgun,5,Tue Aug 17 2021 22:32:51 GMT-0700 (PDT),1629264771282,0.33598333333333336,Gun control,group_rating,1
2659,,35549,15,1,1629264791441,NA,259,male,-1,Definitely call the police and report the robber,Definitely do nothing and leave the robber alone,NA,NA,NA,NA,NA,NA,NA,"Imagine you have witnessed a man rob a bank. However, you then saw him do something unexpected with the money. He donated it all to a run-down orphanage that would benefit greatly from the money. You must decide whether to call the police and report the robber or do nothing and leave the robber alone.",-1,Tue Aug 17 2021 22:32:51 GMT-0700 (PDT),1629264771282,0.33598333333333336,NA,dilemma_trial,1
2659,,4425,15,1,1629264791441,NA,259,male,-1,I have a very bad feeling,I have a very good feeling,NA,NA,NA,NA,NA,NA,NA,How do you feel about your choice?,-1,Tue Aug 17 2021 22:32:51 GMT-0700 (PDT),1629264771282,0.33598333333333336,NA,feeling_trial,1
2659,,56187,15,1,1629264791441,Participants chose which action they preferred,259,male,-1,Participants chose which action they preferred,"Due to a computer error, participants were not allocated equally to imagine performing the different actions",No data was saved during the experiment.,The participants completed the experiment with their eyes closed.,NA,NA,NA,NA,NA,"As mentioned before, this study is a follow-up to a previous study. Given the information provided in the instructions, which of the following statements about the previous study are true?",Participants chose which action they preferred,Tue Aug 17 2021 22:32:51 GMT-0700 (PDT),1629264771282,0.33598333333333336,NA,attention_trial,1
2659,,16136,15,1,1629264791441,NA,259,male,-1,strongly disagree,strongly agree,NA,NA,NA,NA,NA,NA,NA,I identify with Pro-Gun Enthusiasts,2,Tue Aug 17 2021 22:32:51 GMT-0700 (PDT),1629264771282,0.33598333333333336,Gun control,identification_trial,1
2659,,5464,15,1,1629264791441,NA,259,male,-1,strongly disagree,strongly agree,NA,NA,NA,NA,NA,NA,NA,I identify with Feminists,-2,Tue Aug 17 2021 22:32:51 GMT-0700 (PDT),1629264771282,0.33598333333333336,Feminism,identification_trial,2
2658,,6346,17,0,1629264783716,NA,259,male,1,Gun control,Feminism,Joe Biden,Immigration and Dreamers,Transgender rights,Drug legalization,The Black Lives Matter movement,Climate change,Taxing religious organization,What's the most important topic for you?,Transgender rights,Tue Aug 17 2021 22:32:43 GMT-0700 (PDT),1629264763927,0.32981666666666665,NA,topic_choice_trial,1
2658,,3578,17,0,1629264783716,NA,259,male,1,strongly disagree,strongly agree,NA,NA,NA,NA,NA,NA,NA,Adults should have the right to carry a concealed handgun,5,Tue Aug 17 2021 22:32:43 GMT-0700 (PDT),1629264763927,0.32981666666666665,Gun control,group_rating,1
2658,,14493,17,0,1629264783716,NA,259,male,1,Definitely call the police and report the robber,Definitely do nothing and leave the robber alone,NA,NA,NA,NA,NA,NA,NA,"Imagine you have witnessed a man rob a bank. However, you then saw him do something unexpected with the money. He donated it all to a run-down orphanage that would benefit greatly from the money. You must decide whether to call the police and report the robber or do nothing and leave the robber alone.",2,Tue Aug 17 2021 22:32:43 GMT-0700 (PDT),1629264763927,0.32981666666666665,NA,dilemma_trial,1
2658,,2878,17,0,1629264783716,NA,259,male,1,I have a very bad feeling,I have a very good feeling,NA,NA,NA,NA,NA,NA,NA,How do you feel about your choice?,2,Tue Aug 17 2021 22:32:43 GMT-0700 (PDT),1629264763927,0.32981666666666665,NA,feeling_trial,1
2658,,45757,17,0,1629264783716,Participants chose which action they preferred,259,male,1,Participants chose which action they preferred,"Due to a computer error, participants were not allocated equally to imagine performing the different actions",No data was saved during the experiment.,The participants completed the experiment with their eyes closed.,NA,NA,NA,NA,NA,"As mentioned before, this study is a follow-up to a previous study. Given the information provided in the instructions, which of the following statements about the previous study are true?",Participants chose which action they preferred,Tue Aug 17 2021 22:32:43 GMT-0700 (PDT),1629264763927,0.32981666666666665,NA,attention_trial,1
2658,,1949,17,0,1629264783716,NA,259,male,1,strongly disagree,strongly agree,NA,NA,NA,NA,NA,NA,NA,I identify with Pro-Gun Enthusiasts,3,Tue Aug 17 2021 22:32:43 GMT-0700 (PDT),1629264763927,0.32981666666666665,Gun control,identification_trial,1
2658,,2590,17,0,1629264783716,NA,259,male,1,strongly disagree,strongly agree,NA,NA,NA,NA,NA,NA,NA,I identify with Feminists,-3,Tue Aug 17 2021 22:32:43 GMT-0700 (PDT),1629264763927,0.32981666666666665,Feminism,identification_trial,2
2657,,2697,54,0,1629264480351,NA,259,male,1,Gun control,Feminism,Joe Biden,Immigration and Dreamers,Transgender rights,Drug legalization,The Black Lives Matter movement,Climate change,Taxing religious organization,What's the most important topic for you?,Climate change,Tue Aug 17 2021 22:27:36 GMT-0700 (PDT),1629264456198,0.40255,NA,topic_choice_trial,1
2657,,4943,54,0,1629264480351,NA,259,male,1,strongly disagree,strongly agree,NA,NA,NA,NA,NA,NA,NA,Adults should have the right to carry a concealed handgun,5,Tue Aug 17 2021 22:27:36 GMT-0700 (PDT),1629264456198,0.40255,Gun control,group_rating,1
2657,,34135,54,0,1629264480351,NA,259,male,1,Definitely call the police and report the robber,Definitely do nothing and leave the robber alone,NA,NA,NA,NA,NA,NA,NA,"Imagine you have witnessed a man rob a bank. However, you then saw him do something unexpected with the money. He donated it all to a run-down orphanage that would benefit greatly from the money. You must decide whether to call the police and report the robber or do nothing and leave the robber alone.",3,Tue Aug 17 2021 22:27:36 GMT-0700 (PDT),1629264456198,0.40255,NA,dilemma_trial,1
2657,,6006,54,0,1629264480351,NA,259,male,1,I have a very bad feeling,I have a very good feeling,NA,NA,NA,NA,NA,NA,NA,How do you feel about your choice?,2,Tue Aug 17 2021 22:27:36 GMT-0700 (PDT),1629264456198,0.40255,NA,feeling_trial,1
2657,,35670,54,0,1629264480351,Participants chose which action they preferred,259,male,1,Participants chose which action they preferred,"Due to a computer error, participants were not allocated equally to imagine performing the different actions",No data was saved during the experiment.,The participants completed the experiment with their eyes closed.,NA,NA,NA,NA,NA,"As mentioned before, this study is a follow-up to a previous study. Given the information provided in the instructions, which of the following statements about the previous study are true?",Participants chose which action they preferred,Tue Aug 17 2021 22:27:36 GMT-0700 (PDT),1629264456198,0.40255,NA,attention_trial,1
2657,,10624,54,0,1629264480351,NA,259,male,1,strongly disagree,strongly agree,NA,NA,NA,NA,NA,NA,NA,I identify with Pro-Gun Enthusiasts,1,Tue Aug 17 2021 22:27:36 GMT-0700 (PDT),1629264456198,0.40255,Gun control,identification_trial,1
2657,,5875,54,0,1629264480351,NA,259,male,1,strongly disagree,strongly agree,NA,NA,NA,NA,NA,NA,NA,I identify with Feminists,-3,Tue Aug 17 2021 22:27:36 GMT-0700 (PDT),1629264456198,0.40255,Feminism,identification_trial,2
2641,,41800,23,1,1629208504875,NA,259,male,1,Gun control,Feminism,Joe Biden,Immigration and Dreamers,Transgender rights,Drug legalization,The Black Lives Matter movement,Climate change,Taxing religious organization,What's the most important topic for you?,Immigration and Dreamers,Tue Aug 17 2021 15:54:24 GMT+0200 (Central European Summer Time),1629208464361,0.6752333333333334,NA,topic_choice_trial,1
2641,,8814,23,1,1629208504875,NA,259,male,1,strongly disagree,strongly agree,NA,NA,NA,NA,NA,NA,NA,Adults should have the right to carry a concealed handgun,5,Tue Aug 17 2021 15:54:24 GMT+0200 (Central European Summer Time),1629208464361,0.6752333333333334,Gun control,group_rating,1
2641,,58639,23,1,1629208504875,NA,259,male,1,Definitely call the police and report the robber,Definitely do nothing and leave the robber alone,NA,NA,NA,NA,NA,NA,NA,"Imagine you have witnessed a man rob a bank. However, you then saw him do something unexpected with the money. He donated it all to a run-down orphanage that would benefit greatly from the money. You must decide whether to call the police and report the robber or do nothing and leave the robber alone.",3,Tue Aug 17 2021 15:54:24 GMT+0200 (Central European Summer Time),1629208464361,0.6752333333333334,NA,dilemma_trial,1
2641,,8018,23,1,1629208504875,NA,259,male,1,I have a very bad feeling,I have a very good feeling,NA,NA,NA,NA,NA,NA,NA,How do you feel about your choice?,3,Tue Aug 17 2021 15:54:24 GMT+0200 (Central European Summer Time),1629208464361,0.6752333333333334,NA,feeling_trial,1
2641,,37193,23,1,1629208504875,Participants chose which action they preferred,259,male,1,Participants chose which action they preferred,"Due to a computer error, participants were not allocated equally to imagine performing the different actions",No data was saved during the experiment.,The participants completed the experiment with their eyes closed.,NA,NA,NA,NA,NA,"As mentioned before, this study is a follow-up to a previous study. Given the information provided in the instructions, which of the following statements about the previous study are true?",Participants chose which action they preferred,Tue Aug 17 2021 15:54:24 GMT+0200 (Central European Summer Time),1629208464361,0.6752333333333334,NA,attention_trial,1
2641,,10547,23,1,1629208504875,NA,259,male,1,strongly disagree,strongly agree,NA,NA,NA,NA,NA,NA,NA,I identify with Pro-Gun Enthusiasts,2,Tue Aug 17 2021 15:54:24 GMT+0200 (Central European Summer Time),1629208464361,0.6752333333333334,Gun control,identification_trial,1
2641,,4922,23,1,1629208504875,NA,259,male,1,strongly disagree,strongly agree,NA,NA,NA,NA,NA,NA,NA,I identify with Feminists,-3,Tue Aug 17 2021 15:54:24 GMT+0200 (Central European Summer Time),1629208464361,0.6752333333333334,Feminism,identification_trial,2
2618,,3000,21,0,1629133008171,NA,259,male,-1,Gun control,Feminism,Joe Biden,Immigration and Dreamers,Transgender rights,Drug legalization,The Black Lives Matter movement,Climate change,Taxing religious organization,What's the most important topic for you?,Drug legalization,Mon Aug 16 2021 18:56:39 GMT+0200 (Central European Summer Time),1629132999499,0.14453333333333335,NA,topic_choice_trial,1
2618,,4154,21,0,1629133008171,NA,259,male,-1,strongly disagree,strongly agree,NA,NA,NA,NA,NA,NA,NA,Adults should have the right to carry a concealed handgun,5,Mon Aug 16 2021 18:56:39 GMT+0200 (Central European Summer Time),1629132999499,0.14453333333333335,Gun control,group_rating,1
2618,,3484,21,0,1629133008171,NA,259,male,-1,Definitely call the police and report the robber,Definitely do nothing and leave the robber alone,NA,NA,NA,NA,NA,NA,NA,"Imagine you have witnessed a man rob a bank. However, you then saw him do something unexpected with the money. He donated it all to a run-down orphanage that would benefit greatly from the money. You must decide whether to call the police and report the robber or do nothing and leave the robber alone.",-1,Mon Aug 16 2021 18:56:39 GMT+0200 (Central European Summer Time),1629132999499,0.14453333333333335,NA,dilemma_trial,1
2618,,4216,21,0,1629133008171,NA,259,male,-1,I have a very bad feeling,I have a very good feeling,NA,NA,NA,NA,NA,NA,NA,How do you feel about your choice?,1,Mon Aug 16 2021 18:56:39 GMT+0200 (Central European Summer Time),1629132999499,0.14453333333333335,NA,feeling_trial,1
2618,,189031,21,0,1629133008171,Participants chose which action they preferred,259,male,-1,Participants chose which action they preferred,"Due to a computer error, participants were not allocated equally to imagine performing the different actions",No data was saved during the experiment.,The participants completed the experiment with their eyes closed.,NA,NA,NA,NA,NA,"As mentioned before, this study is a follow-up to a previous study. Given the information provided in the instructions, which of the following statements about the previous study are true?",Participants chose which action they preferred,Mon Aug 16 2021 18:56:39 GMT+0200 (Central European Summer Time),1629132999499,0.14453333333333335,NA,attention_trial,1
2618,,34085,21,0,1629133008171,NA,259,male,-1,strongly disagree,strongly agree,NA,NA,NA,NA,NA,NA,NA,I identify with Pro-Gun Enthusiasts,2,Mon Aug 16 2021 18:56:39 GMT+0200 (Central European Summer Time),1629132999499,0.14453333333333335,Gun control,identification_trial,1
2618,,5012,21,0,1629133008171,NA,259,male,-1,strongly disagree,strongly agree,NA,NA,NA,NA,NA,NA,NA,I identify with Feminists,2,Mon Aug 16 2021 18:56:39 GMT+0200 (Central European Summer Time),1629132999499,0.14453333333333335,Feminism,identification_trial,2
2608,,21015,21,1,1629118099683,NA,259,female,-1,Gun control,Feminism,Joe Biden,Immigration and Dreamers,Transgender rights,Drug legalization,The Black Lives Matter movement,Climate change,Taxing religious organization,What's the most important topic for you?,Climate change,Mon Aug 16 2021 14:48:05 GMT+0200 (Mitteleuropäische Sommerzeit),1629118085815,0.23113333333333333,NA,topic_choice_trial,1
2608,,3586,21,1,1629118099683,NA,259,female,-1,strongly disagree,strongly agree,NA,NA,NA,NA,NA,NA,NA,Adults should have the right to carry a concealed handgun,5,Mon Aug 16 2021 14:48:05 GMT+0200 (Mitteleuropäische Sommerzeit),1629118085815,0.23113333333333333,Gun control,group_rating,1
2608,,66093,21,1,1629118099683,NA,259,female,-1,Definitely call the police and report the robber,Definitely do nothing and leave the robber alone,NA,NA,NA,NA,NA,NA,NA,"Imagine you have witnessed a man rob a bank. However, you then saw him do something unexpected with the money. He donated it all to a run-down orphanage that would benefit greatly from the money. You must decide whether to call the police and report the robber or do nothing and leave the robber alone.",-1,Mon Aug 16 2021 14:48:05 GMT+0200 (Mitteleuropäische Sommerzeit),1629118085815,0.23113333333333333,NA,dilemma_trial,1
2608,,5170,21,1,1629118099683,NA,259,female,-1,I have a very bad feeling,I have a very good feeling,NA,NA,NA,NA,NA,NA,NA,How do you feel about your choice?,-1,Mon Aug 16 2021 14:48:05 GMT+0200 (Mitteleuropäische Sommerzeit),1629118085815,0.23113333333333333,NA,feeling_trial,1
2608,,34153,21,1,1629118099683,Participants chose which action they preferred,259,female,-1,Participants chose which action they preferred,"Due to a computer error, participants were not allocated equally to imagine performing the different actions",No data was saved during the experiment.,The participants completed the experiment with their eyes closed.,NA,NA,NA,NA,NA,"As mentioned before, this study is a follow-up to a previous study. Given the information provided in the instructions, which of the following statements about the previous study are true?",Participants chose which action they preferred,Mon Aug 16 2021 14:48:05 GMT+0200 (Mitteleuropäische Sommerzeit),1629118085815,0.23113333333333333,NA,attention_trial,1
2608,,5695,21,1,1629118099683,NA,259,female,-1,strongly disagree,strongly agree,NA,NA,NA,NA,NA,NA,NA,I identify with Pro-Gun Enthusiasts,2,Mon Aug 16 2021 14:48:05 GMT+0200 (Mitteleuropäische Sommerzeit),1629118085815,0.23113333333333333,Gun control,identification_trial,1
2608,,3828,21,1,1629118099683,NA,259,female,-1,strongly disagree,strongly agree,NA,NA,NA,NA,NA,NA,NA,I identify with Feminists,-3,Mon Aug 16 2021 14:48:05 GMT+0200 (Mitteleuropäische Sommerzeit),1629118085815,0.23113333333333333,Feminism,identification_trial,2
2604,,7083,28,1,1629110133842,NA,259,other,1,Gun control,Feminism,Joe Biden,Immigration and Dreamers,Transgender rights,Drug legalization,The Black Lives Matter movement,Climate change,Taxing religious organization,What's the most important topic for you?,Climate change,Mon Aug 16 2021 12:35:15 GMT+0200 (Mitteleuropäische Sommerzeit),1629110115194,0.3108,NA,topic_choice_trial,1
2604,,3032,28,1,1629110133842,NA,259,other,1,strongly disagree,strongly agree,NA,NA,NA,NA,NA,NA,NA,Adults should have the right to carry a concealed handgun,5,Mon Aug 16 2021 12:35:15 GMT+0200 (Mitteleuropäische Sommerzeit),1629110115194,0.3108,Gun control,group_rating,1
2604,,14551,28,1,1629110133842,NA,259,other,1,Definitely call the police and report the robber,Definitely do nothing and leave the robber alone,NA,NA,NA,NA,NA,NA,NA,"Imagine you have witnessed a man rob a bank. However, you then saw him do something unexpected with the money. He donated it all to a run-down orphanage that would benefit greatly from the money. You must decide whether to call the police and report the robber or do nothing and leave the robber alone.",3,Mon Aug 16 2021 12:35:15 GMT+0200 (Mitteleuropäische Sommerzeit),1629110115194,0.3108,NA,dilemma_trial,1
2604,,2584,28,1,1629110133842,NA,259,other,1,I have a very bad feeling,I have a very good feeling,NA,NA,NA,NA,NA,NA,NA,How do you feel about your choice?,3,Mon Aug 16 2021 12:35:15 GMT+0200 (Mitteleuropäische Sommerzeit),1629110115194,0.3108,NA,feeling_trial,1
2604,,16784,28,1,1629110133842,Participants chose which action they preferred,259,other,1,Participants chose which action they preferred,"Due to a computer error, participants were not allocated equally to imagine performing the different actions",No data was saved during the experiment.,The participants completed the experiment with their eyes closed.,NA,NA,NA,NA,NA,"As mentioned before, this study is a follow-up to a previous study. Given the information provided in the instructions, which of the following statements about the previous study are true?",No data was saved during the experiment.,Mon Aug 16 2021 12:35:15 GMT+0200 (Mitteleuropäische Sommerzeit),1629110115194,0.3108,NA,attention_trial,1
2604,,5071,28,1,1629110133842,NA,259,other,1,strongly disagree,strongly agree,NA,NA,NA,NA,NA,NA,NA,I identify with Pro-Gun Enthusiasts,2,Mon Aug 16 2021 12:35:15 GMT+0200 (Mitteleuropäische Sommerzeit),1629110115194,0.3108,Gun control,identification_trial,1
2604,,2535,28,1,1629110133842,NA,259,other,1,strongly disagree,strongly agree,NA,NA,NA,NA,NA,NA,NA,I identify with Feminists,-3,Mon Aug 16 2021 12:35:15 GMT+0200 (Mitteleuropäische Sommerzeit),1629110115194,0.3108,Feminism,identification_trial,2
2595,,31599,27,1,1629105436553,NA,259,female,1,Gun control,Feminism,Joe Biden,Immigration and Dreamers,Transgender rights,Drug legalization,The Black Lives Matter movement,Climate change,Taxing religious organization,What's the most important topic for you?,Feminism,Mon Aug 16 2021 11:16:30 GMT+0200 (Mitteleuropäische Sommerzeit),1629105390813,0.7623333333333333,NA,topic_choice_trial,1
2595,,5570,27,1,1629105436553,NA,259,female,1,strongly disagree,strongly agree,NA,NA,NA,NA,NA,NA,NA,Adults should have the right to carry a concealed handgun,5,Mon Aug 16 2021 11:16:30 GMT+0200 (Mitteleuropäische Sommerzeit),1629105390813,0.7623333333333333,Gun control,group_rating,1
2595,,41196,27,1,1629105436553,NA,259,female,1,Definitely call the police and report the robber,Definitely do nothing and leave the robber alone,NA,NA,NA,NA,NA,NA,NA,"Imagine you have witnessed a man rob a bank. However, you then saw him do something unexpected with the money. He donated it all to a run-down orphanage that would benefit greatly from the money. You must decide whether to call the police and report the robber or do nothing and leave the robber alone.",2,Mon Aug 16 2021 11:16:30 GMT+0200 (Mitteleuropäische Sommerzeit),1629105390813,0.7623333333333333,NA,dilemma_trial,1
2595,,8450,27,1,1629105436553,NA,259,female,1,I have a very bad feeling,I have a very good feeling,NA,NA,NA,NA,NA,NA,NA,How do you feel about your choice?,-1,Mon Aug 16 2021 11:16:30 GMT+0200 (Mitteleuropäische Sommerzeit),1629105390813,0.7623333333333333,NA,feeling_trial,1
2595,,21878,27,1,1629105436553,Participants chose which action they preferred,259,female,1,Participants chose which action they preferred,"Due to a computer error, participants were not allocated equally to imagine performing the different actions",No data was saved during the experiment.,The participants completed the experiment with their eyes closed.,NA,NA,NA,NA,NA,"As mentioned before, this study is a follow-up to a previous study. Given the information provided in the instructions, which of the following statements about the previous study are true?",Participants chose which action they preferred,Mon Aug 16 2021 11:16:30 GMT+0200 (Mitteleuropäische Sommerzeit),1629105390813,0.7623333333333333,NA,attention_trial,1
2595,,6595,27,1,1629105436553,NA,259,female,1,strongly disagree,strongly agree,NA,NA,NA,NA,NA,NA,NA,I identify with Pro-Gun Enthusiasts,2,Mon Aug 16 2021 11:16:30 GMT+0200 (Mitteleuropäische Sommerzeit),1629105390813,0.7623333333333333,Gun control,identification_trial,1
2595,,2812,27,1,1629105436553,NA,259,female,1,strongly disagree,strongly agree,NA,NA,NA,NA,NA,NA,NA,I identify with Feminists,-3,Mon Aug 16 2021 11:16:30 GMT+0200 (Mitteleuropäische Sommerzeit),1629105390813,0.7623333333333333,Feminism,identification_trial,2
2593,,13598,28,0,1629093683900,NA,259,female,1,Gun control,Feminism,Joe Biden,Immigration and Dreamers,Transgender rights,Drug legalization,The Black Lives Matter movement,Climate change,Taxing religious organization,What's the most important topic for you?,Climate change,Mon Aug 16 2021 08:00:53 GMT+0200 (Central European Summer Time),1629093653654,0.5041,NA,topic_choice_trial,1
2593,,3613,28,0,1629093683900,NA,259,female,1,strongly disagree,strongly agree,NA,NA,NA,NA,NA,NA,NA,Adults should have the right to carry a concealed handgun,5,Mon Aug 16 2021 08:00:53 GMT+0200 (Central European Summer Time),1629093653654,0.5041,Gun control,group_rating,1
2593,,29305,28,0,1629093683900,NA,259,female,1,Definitely call the police and report the robber,Definitely do nothing and leave the robber alone,NA,NA,NA,NA,NA,NA,NA,"Imagine you have witnessed a man rob a bank. However, you then saw him do something unexpected with the money. He donated it all to a run-down orphanage that would benefit greatly from the money. You must decide whether to call the police and report the robber or do nothing and leave the robber alone.",-1,Mon Aug 16 2021 08:00:53 GMT+0200 (Central European Summer Time),1629093653654,0.5041,NA,dilemma_trial,1
2593,,3846,28,0,1629093683900,NA,259,female,1,I have a very bad feeling,I have a very good feeling,NA,NA,NA,NA,NA,NA,NA,How do you feel about your choice?,-2,Mon Aug 16 2021 08:00:53 GMT+0200 (Central European Summer Time),1629093653654,0.5041,NA,feeling_trial,1
2593,,51724,28,0,1629093683900,Participants chose which action they preferred,259,female,1,Participants chose which action they preferred,"Due to a computer error, participants were not allocated equally to imagine performing the different actions",No data was saved during the experiment.,The participants completed the experiment with their eyes closed.,NA,NA,NA,NA,NA,"As mentioned before, this study is a follow-up to a previous study. Given the information provided in the instructions, which of the following statements about the previous study are true?",Participants chose which action they preferred,Mon Aug 16 2021 08:00:53 GMT+0200 (Central European Summer Time),1629093653654,0.5041,NA,attention_trial,1
2593,,4287,28,0,1629093683900,NA,259,female,1,strongly disagree,strongly agree,NA,NA,NA,NA,NA,NA,NA,I identify with Pro-Gun Enthusiasts,2,Mon Aug 16 2021 08:00:53 GMT+0200 (Central European Summer Time),1629093653654,0.5041,Gun control,identification_trial,1
2593,,2785,28,0,1629093683900,NA,259,female,1,strongly disagree,strongly agree,NA,NA,NA,NA,NA,NA,NA,I identify with Feminists,-3,Mon Aug 16 2021 08:00:53 GMT+0200 (Central European Summer Time),1629093653654,0.5041,Feminism,identification_trial,2
2591,,18880,21,1,1629076257749,NA,259,female,-1,Gun control,Feminism,Joe Biden,Immigration and Dreamers,Transgender rights,Drug legalization,The Black Lives Matter movement,Climate change,Taxing religious organization,What's the most important topic for you?,Immigration and Dreamers,Mon Aug 16 2021 03:10:11 GMT+0200 (Mitteleuropäische Sommerzeit),1629076211133,0.7769333333333334,NA,topic_choice_trial,1
2591,,6953,21,1,1629076257749,NA,259,female,-1,strongly disagree,strongly agree,NA,NA,NA,NA,NA,NA,NA,Adults should have the right to carry a concealed handgun,5,Mon Aug 16 2021 03:10:11 GMT+0200 (Mitteleuropäische Sommerzeit),1629076211133,0.7769333333333334,Gun control,group_rating,1
2591,,54633,21,1,1629076257749,NA,259,female,-1,Definitely call the police and report the robber,Definitely do nothing and leave the robber alone,NA,NA,NA,NA,NA,NA,NA,"Imagine you have witnessed a man rob a bank. However, you then saw him do something unexpected with the money. He donated it all to a run-down orphanage that would benefit greatly from the money. You must decide whether to call the police and report the robber or do nothing and leave the robber alone.",2,Mon Aug 16 2021 03:10:11 GMT+0200 (Mitteleuropäische Sommerzeit),1629076211133,0.7769333333333334,NA,dilemma_trial,1
2591,,7958,21,1,1629076257749,NA,259,female,-1,I have a very bad feeling,I have a very good feeling,NA,NA,NA,NA,NA,NA,NA,How do you feel about your choice?,1,Mon Aug 16 2021 03:10:11 GMT+0200 (Mitteleuropäische Sommerzeit),1629076211133,0.7769333333333334,NA,feeling_trial,1
2591,,53038,21,1,1629076257749,Participants chose which action they preferred,259,female,-1,Participants chose which action they preferred,"Due to a computer error, participants were not allocated equally to imagine performing the different actions",No data was saved during the experiment.,The participants completed the experiment with their eyes closed.,NA,NA,NA,NA,NA,"As mentioned before, this study is a follow-up to a previous study. Given the information provided in the instructions, which of the following statements about the previous study are true?",Participants chose which action they preferred,Mon Aug 16 2021 03:10:11 GMT+0200 (Mitteleuropäische Sommerzeit),1629076211133,0.7769333333333334,NA,attention_trial,1
2591,,9465,21,1,1629076257749,NA,259,female,-1,strongly disagree,strongly agree,NA,NA,NA,NA,NA,NA,NA,I identify with Pro-Gun Enthusiasts,2,Mon Aug 16 2021 03:10:11 GMT+0200 (Mitteleuropäische Sommerzeit),1629076211133,0.7769333333333334,Gun control,identification_trial,1
2591,,4248,21,1,1629076257749,NA,259,female,-1,strongly disagree,strongly agree,NA,NA,NA,NA,NA,NA,NA,I identify with Feminists,-3,Mon Aug 16 2021 03:10:11 GMT+0200 (Mitteleuropäische Sommerzeit),1629076211133,0.7769333333333334,Feminism,identification_trial,2
2577,,11823,,0,1629047689432,NA,259,,1,Gun control,Feminism,Joe Biden,Immigration and Dreamers,Transgender rights,Drug legalization,The Black Lives Matter movement,Climate change,Taxing religious organization,What's the most important topic for you?,Climate change,Sun Aug 15 2021 19:14:35 GMT+0200 (Central European Summer Time),1629047675723,0.22848333333333334,NA,topic_choice_trial,1
2577,,14039,,0,1629047689432,NA,259,,1,strongly disagree,strongly agree,NA,NA,NA,NA,NA,NA,NA,Adults should have the right to carry a concealed handgun,4,Sun Aug 15 2021 19:14:35 GMT+0200 (Central European Summer Time),1629047675723,0.22848333333333334,Gun control,group_rating,1
2577,,18922,,0,1629047689432,NA,259,,1,Definitely call the police and report the robber,Definitely do nothing and leave the robber alone,NA,NA,NA,NA,NA,NA,NA,"Imagine you have witnessed a man rob a bank. However, you then saw him do something unexpected with the money. He donated it all to a run-down orphanage that would benefit greatly from the money. You must decide whether to call the police and report the robber or do nothing and leave the robber alone.",2,Sun Aug 15 2021 19:14:35 GMT+0200 (Central European Summer Time),1629047675723,0.22848333333333334,NA,dilemma_trial,1
2577,,7708,,0,1629047689432,NA,259,,1,I have a very bad feeling,I have a very good feeling,NA,NA,NA,NA,NA,NA,NA,How do you feel about your choice?,1,Sun Aug 15 2021 19:14:35 GMT+0200 (Central European Summer Time),1629047675723,0.22848333333333334,NA,feeling_trial,1
2577,,12812,,0,1629047689432,Participants chose which action they preferred,259,,1,Participants chose which action they preferred,"Due to a computer error, participants were not allocated equally to imagine performing the different actions",No data was saved during the experiment.,The participants completed the experiment with their eyes closed.,NA,NA,NA,NA,NA,"As mentioned before, this study is a follow-up to a previous study. Given the information provided in the instructions, which of the following statements about the previous study are true?",Participants chose which action they preferred,Sun Aug 15 2021 19:14:35 GMT+0200 (Central European Summer Time),1629047675723,0.22848333333333334,NA,attention_trial,1
2577,,11237,,0,1629047689432,NA,259,,1,strongly disagree,strongly agree,NA,NA,NA,NA,NA,NA,NA,I identify with Pro-Gun Enthusiasts,1,Sun Aug 15 2021 19:14:35 GMT+0200 (Central European Summer Time),1629047675723,0.22848333333333334,Gun control,identification_trial,1
2577,,7299,,0,1629047689432,NA,259,,1,strongly disagree,strongly agree,NA,NA,NA,NA,NA,NA,NA,I identify with Feminists,-3,Sun Aug 15 2021 19:14:35 GMT+0200 (Central European Summer Time),1629047675723,0.22848333333333334,Feminism,identification_trial,2
2568,,1423,22,1,1629035127613,NA,259,female,1,Gun control,Feminism,Joe Biden,Immigration and Dreamers,Transgender rights,Drug legalization,The Black Lives Matter movement,Climate change,Taxing religious organization,What's the most important topic for you?,The Black Lives Matter movement,Sun Aug 15 2021 15:45:16 GMT+0200 (Mitteleuropäische Sommerzeit),1629035116242,0.18951666666666667,NA,topic_choice_trial,1
2568,,1304,22,1,1629035127613,NA,259,female,1,strongly disagree,strongly agree,NA,NA,NA,NA,NA,NA,NA,Adults should have the right to carry a concealed handgun,-5,Sun Aug 15 2021 15:45:16 GMT+0200 (Mitteleuropäische Sommerzeit),1629035116242,0.18951666666666667,Gun control,group_rating,1
2568,,4192,22,1,1629035127613,NA,259,female,1,Definitely call the police and report the robber,Definitely do nothing and leave the robber alone,NA,NA,NA,NA,NA,NA,NA,"Imagine you have witnessed a man rob a bank. However, you then saw him do something unexpected with the money. He donated it all to a run-down orphanage that would benefit greatly from the money. You must decide whether to call the police and report the robber or do nothing and leave the robber alone.",2,Sun Aug 15 2021 15:45:16 GMT+0200 (Mitteleuropäische Sommerzeit),1629035116242,0.18951666666666667,NA,dilemma_trial,1
2568,,1984,22,1,1629035127613,NA,259,female,1,I have a very bad feeling,I have a very good feeling,NA,NA,NA,NA,NA,NA,NA,How do you feel about your choice?,-1,Sun Aug 15 2021 15:45:16 GMT+0200 (Mitteleuropäische Sommerzeit),1629035116242,0.18951666666666667,NA,feeling_trial,1
2568,,1552,22,1,1629035127613,Participants chose which action they preferred,259,female,1,Participants chose which action they preferred,"Due to a computer error, participants were not allocated equally to imagine performing the different actions",No data was saved during the experiment.,The participants completed the experiment with their eyes closed.,NA,NA,NA,NA,NA,"As mentioned before, this study is a follow-up to a previous study. Given the information provided in the instructions, which of the following statements about the previous study are true?",Participants chose which action they preferred,Sun Aug 15 2021 15:45:16 GMT+0200 (Mitteleuropäische Sommerzeit),1629035116242,0.18951666666666667,NA,attention_trial,1
2568,,2840,22,1,1629035127613,NA,259,female,1,strongly disagree,strongly agree,NA,NA,NA,NA,NA,NA,NA,I identify with Pro-Gun Enthusiasts,1,Sun Aug 15 2021 15:45:16 GMT+0200 (Mitteleuropäische Sommerzeit),1629035116242,0.18951666666666667,Gun control,identification_trial,1
2568,,719,22,1,1629035127613,NA,259,female,1,strongly disagree,strongly agree,NA,NA,NA,NA,NA,NA,NA,I identify with Feminists,-3,Sun Aug 15 2021 15:45:16 GMT+0200 (Mitteleuropäische Sommerzeit),1629035116242,0.18951666666666667,Feminism,identification_trial,2
2567,,10239,22,1,1629034998021,NA,259,female,1,Gun control,Feminism,Joe Biden,Immigration and Dreamers,Transgender rights,Drug legalization,The Black Lives Matter movement,Climate change,Taxing religious organization,What's the most important topic for you?,The Black Lives Matter movement,Sun Aug 15 2021 15:42:21 GMT+0200 (Mitteleuropäische Sommerzeit),1629034941395,0.9437666666666666,NA,topic_choice_trial,1
2567,,5872,22,1,1629034998021,NA,259,female,1,strongly disagree,strongly agree,NA,NA,NA,NA,NA,NA,NA,Adults should have the right to carry a concealed handgun,-5,Sun Aug 15 2021 15:42:21 GMT+0200 (Mitteleuropäische Sommerzeit),1629034941395,0.9437666666666666,Gun control,group_rating,1
2567,,32784,22,1,1629034998021,NA,259,female,1,Definitely call the police and report the robber,Definitely do nothing and leave the robber alone,NA,NA,NA,NA,NA,NA,NA,"Imagine you have witnessed a man rob a bank. However, you then saw him do something unexpected with the money. He donated it all to a run-down orphanage that would benefit greatly from the money. You must decide whether to call the police and report the robber or do nothing and leave the robber alone.",2,Sun Aug 15 2021 15:42:21 GMT+0200 (Mitteleuropäische Sommerzeit),1629034941395,0.9437666666666666,NA,dilemma_trial,1
2567,,5263,22,1,1629034998021,NA,259,female,1,I have a very bad feeling,I have a very good feeling,NA,NA,NA,NA,NA,NA,NA,How do you feel about your choice?,-1,Sun Aug 15 2021 15:42:21 GMT+0200 (Mitteleuropäische Sommerzeit),1629034941395,0.9437666666666666,NA,feeling_trial,1
2567,,23559,22,1,1629034998021,Participants chose which action they preferred,259,female,1,Participants chose which action they preferred,"Due to a computer error, participants were not allocated equally to imagine performing the different actions",No data was saved during the experiment.,The participants completed the experiment with their eyes closed.,NA,NA,NA,NA,NA,"As mentioned before, this study is a follow-up to a previous study. Given the information provided in the instructions, which of the following statements about the previous study are true?",No data was saved during the experiment.,Sun Aug 15 2021 15:42:21 GMT+0200 (Mitteleuropäische Sommerzeit),1629034941395,0.9437666666666666,NA,attention_trial,1
2567,,7392,22,1,1629034998021,NA,259,female,1,strongly disagree,strongly agree,NA,NA,NA,NA,NA,NA,NA,I identify with Pro-Gun Enthusiasts,1,Sun Aug 15 2021 15:42:21 GMT+0200 (Mitteleuropäische Sommerzeit),1629034941395,0.9437666666666666,Gun control,identification_trial,1
2567,,2047,22,1,1629034998021,NA,259,female,1,strongly disagree,strongly agree,NA,NA,NA,NA,NA,NA,NA,I identify with Feminists,-3,Sun Aug 15 2021 15:42:21 GMT+0200 (Mitteleuropäische Sommerzeit),1629034941395,0.9437666666666666,Feminism,identification_trial,2
2565,,35433,28,0,1629029249557,NA,259,male,-1,Gun control,Feminism,Joe Biden,Immigration and Dreamers,Transgender rights,Drug legalization,The Black Lives Matter movement,Climate change,Taxing religious organization,What's the most important topic for you?,Gun control,Sun Aug 15 2021 14:06:29 GMT+0200 (Central European Summer Time),1629029189381,1.0029333333333332,NA,topic_choice_trial,1
2565,,6819,28,0,1629029249557,NA,259,male,-1,strongly disagree,strongly agree,NA,NA,NA,NA,NA,NA,NA,Adults should have the right to carry a concealed handgun,-5,Sun Aug 15 2021 14:06:29 GMT+0200 (Central European Summer Time),1629029189381,1.0029333333333332,Gun control,group_rating,1
2565,,35073,28,0,1629029249557,NA,259,male,-1,Definitely call the police and report the robber,Definitely do nothing and leave the robber alone,NA,NA,NA,NA,NA,NA,NA,"Imagine you have witnessed a man rob a bank. However, you then saw him do something unexpected with the money. He donated it all to a run-down orphanage that would benefit greatly from the money. You must decide whether to call the police and report the robber or do nothing and leave the robber alone.",-3,Sun Aug 15 2021 14:06:29 GMT+0200 (Central European Summer Time),1629029189381,1.0029333333333332,NA,dilemma_trial,1
2565,,6445,28,0,1629029249557,NA,259,male,-1,I have a very bad feeling,I have a very good feeling,NA,NA,NA,NA,NA,NA,NA,How do you feel about your choice?,3,Sun Aug 15 2021 14:06:29 GMT+0200 (Central European Summer Time),1629029189381,1.0029333333333332,NA,feeling_trial,1
2565,,54562,28,0,1629029249557,Participants chose which action they preferred,259,male,-1,Participants chose which action they preferred,"Due to a computer error, participants were not allocated equally to imagine performing the different actions",No data was saved during the experiment.,The participants completed the experiment with their eyes closed.,NA,NA,NA,NA,NA,"As mentioned before, this study is a follow-up to a previous study. Given the information provided in the instructions, which of the following statements about the previous study are true?",Participants chose which action they preferred,Sun Aug 15 2021 14:06:29 GMT+0200 (Central European Summer Time),1629029189381,1.0029333333333332,NA,attention_trial,1
2565,,10516,28,0,1629029249557,NA,259,male,-1,strongly disagree,strongly agree,NA,NA,NA,NA,NA,NA,NA,I identify with Pro-Gun Enthusiasts,-3,Sun Aug 15 2021 14:06:29 GMT+0200 (Central European Summer Time),1629029189381,1.0029333333333332,Gun control,identification_trial,1
2565,,9915,28,0,1629029249557,NA,259,male,-1,strongly disagree,strongly agree,NA,NA,NA,NA,NA,NA,NA,I identify with Feminists,3,Sun Aug 15 2021 14:06:29 GMT+0200 (Central European Summer Time),1629029189381,1.0029333333333332,Feminism,identification_trial,2
2563,,14225,83,0,1629025404025,NA,259,female,-1,Gun control,Feminism,Joe Biden,Immigration and Dreamers,Transgender rights,Drug legalization,The Black Lives Matter movement,Climate change,Taxing religious organization,What's the most important topic for you?,Climate change,Sun Aug 15 2021 07:02:24 GMT-0400 (EDT),1629025344754,0.98785,NA,topic_choice_trial,1
2563,,3504,83,0,1629025404025,NA,259,female,-1,strongly disagree,strongly agree,NA,NA,NA,NA,NA,NA,NA,Adults should have the right to carry a concealed handgun,5,Sun Aug 15 2021 07:02:24 GMT-0400 (EDT),1629025344754,0.98785,Gun control,group_rating,1
2563,,109526,83,0,1629025404025,NA,259,female,-1,Definitely call the police and report the robber,Definitely do nothing and leave the robber alone,NA,NA,NA,NA,NA,NA,NA,"Imagine you have witnessed a man rob a bank. However, you then saw him do something unexpected with the money. He donated it all to a run-down orphanage that would benefit greatly from the money. You must decide whether to call the police and report the robber or do nothing and leave the robber alone.",-3,Sun Aug 15 2021 07:02:24 GMT-0400 (EDT),1629025344754,0.98785,NA,dilemma_trial,1
2563,,58741,83,0,1629025404025,NA,259,female,-1,I have a very bad feeling,I have a very good feeling,NA,NA,NA,NA,NA,NA,NA,How do you feel about your choice?,1,Sun Aug 15 2021 07:02:24 GMT-0400 (EDT),1629025344754,0.98785,NA,feeling_trial,1
2563,,29078,83,0,1629025404025,Participants chose which action they preferred,259,female,-1,Participants chose which action they preferred,"Due to a computer error, participants were not allocated equally to imagine performing the different actions",No data was saved during the experiment.,The participants completed the experiment with their eyes closed.,NA,NA,NA,NA,NA,"As mentioned before, this study is a follow-up to a previous study. Given the information provided in the instructions, which of the following statements about the previous study are true?",Participants chose which action they preferred,Sun Aug 15 2021 07:02:24 GMT-0400 (EDT),1629025344754,0.98785,NA,attention_trial,1
2563,,63936,83,0,1629025404025,NA,259,female,-1,strongly disagree,strongly agree,NA,NA,NA,NA,NA,NA,NA,I identify with Pro-Gun Enthusiasts,-1,Sun Aug 15 2021 07:02:24 GMT-0400 (EDT),1629025344754,0.98785,Gun control,identification_trial,1
2563,,1990,83,0,1629025404025,NA,259,female,-1,strongly disagree,strongly agree,NA,NA,NA,NA,NA,NA,NA,I identify with Feminists,-1,Sun Aug 15 2021 07:02:24 GMT-0400 (EDT),1629025344754,0.98785,Feminism,identification_trial,2
2558,,11381,68,0,1629016696620,NA,259,female,-1,Gun control,Feminism,Joe Biden,Immigration and Dreamers,Transgender rights,Drug legalization,The Black Lives Matter movement,Climate change,Taxing religious organization,What's the most important topic for you?,Climate change,Sun Aug 15 2021 10:38:01 GMT+0200 (Mitteleuropäische Sommerzeit),1629016681274,0.25576666666666664,NA,topic_choice_trial,1
2558,,5954,68,0,1629016696620,NA,259,female,-1,strongly disagree,strongly agree,NA,NA,NA,NA,NA,NA,NA,Adults should have the right to carry a concealed handgun,5,Sun Aug 15 2021 10:38:01 GMT+0200 (Mitteleuropäische Sommerzeit),1629016681274,0.25576666666666664,Gun control,group_rating,1
2558,,14440,68,0,1629016696620,NA,259,female,-1,Definitely call the police and report the robber,Definitely do nothing and leave the robber alone,NA,NA,NA,NA,NA,NA,NA,"Imagine you have witnessed a man rob a bank. However, you then saw him do something unexpected with the money. He donated it all to a run-down orphanage that would benefit greatly from the money. You must decide whether to call the police and report the robber or do nothing and leave the robber alone.",3,Sun Aug 15 2021 10:38:01 GMT+0200 (Mitteleuropäische Sommerzeit),1629016681274,0.25576666666666664,NA,dilemma_trial,1
2558,,10018,68,0,1629016696620,NA,259,female,-1,I have a very bad feeling,I have a very good feeling,NA,NA,NA,NA,NA,NA,NA,How do you feel about your choice?,3,Sun Aug 15 2021 10:38:01 GMT+0200 (Mitteleuropäische Sommerzeit),1629016681274,0.25576666666666664,NA,feeling_trial,1
2558,,14910,68,0,1629016696620,Participants chose which action they preferred,259,female,-1,Participants chose which action they preferred,"Due to a computer error, participants were not allocated equally to imagine performing the different actions",No data was saved during the experiment.,The participants completed the experiment with their eyes closed.,NA,NA,NA,NA,NA,"As mentioned before, this study is a follow-up to a previous study. Given the information provided in the instructions, which of the following statements about the previous study are true?",Participants chose which action they preferred,Sun Aug 15 2021 10:38:01 GMT+0200 (Mitteleuropäische Sommerzeit),1629016681274,0.25576666666666664,NA,attention_trial,1
2558,,6243,68,0,1629016696620,NA,259,female,-1,strongly disagree,strongly agree,NA,NA,NA,NA,NA,NA,NA,I identify with Pro-Gun Enthusiasts,2,Sun Aug 15 2021 10:38:01 GMT+0200 (Mitteleuropäische Sommerzeit),1629016681274,0.25576666666666664,Gun control,identification_trial,1
2558,,5759,68,0,1629016696620,NA,259,female,-1,strongly disagree,strongly agree,NA,NA,NA,NA,NA,NA,NA,I identify with Feminists,-3,Sun Aug 15 2021 10:38:01 GMT+0200 (Mitteleuropäische Sommerzeit),1629016681274,0.25576666666666664,Feminism,identification_trial,2
2557,,22991,20,1,1629014218771,NA,259,female,1,Gun control,Feminism,Joe Biden,Immigration and Dreamers,Transgender rights,Drug legalization,The Black Lives Matter movement,Climate change,Taxing religious organization,What's the most important topic for you?,The Black Lives Matter movement,Sun Aug 15 2021 09:55:38 GMT+0200 (CEST),1629014138244,1.3421166666666666,NA,topic_choice_trial,1
2557,,11699,20,1,1629014218771,NA,259,female,1,strongly disagree,strongly agree,NA,NA,NA,NA,NA,NA,NA,Adults should have the right to carry a concealed handgun,-5,Sun Aug 15 2021 09:55:38 GMT+0200 (CEST),1629014138244,1.3421166666666666,Gun control,group_rating,1
2557,,144471,20,1,1629014218771,NA,259,female,1,Definitely call the police and report the robber,Definitely do nothing and leave the robber alone,NA,NA,NA,NA,NA,NA,NA,"Imagine you have witnessed a man rob a bank. However, you then saw him do something unexpected with the money. He donated it all to a run-down orphanage that would benefit greatly from the money. You must decide whether to call the police and report the robber or do nothing and leave the robber alone.",2,Sun Aug 15 2021 09:55:38 GMT+0200 (CEST),1629014138244,1.3421166666666666,NA,dilemma_trial,1
2557,,24163,20,1,1629014218771,NA,259,female,1,I have a very bad feeling,I have a very good feeling,NA,NA,NA,NA,NA,NA,NA,How do you feel about your choice?,2,Sun Aug 15 2021 09:55:38 GMT+0200 (CEST),1629014138244,1.3421166666666666,NA,feeling_trial,1
2557,,33269,20,1,1629014218771,Participants chose which action they preferred,259,female,1,Participants chose which action they preferred,"Due to a computer error, participants were not allocated equally to imagine performing the different actions",No data was saved during the experiment.,The participants completed the experiment with their eyes closed.,NA,NA,NA,NA,NA,"As mentioned before, this study is a follow-up to a previous study. Given the information provided in the instructions, which of the following statements about the previous study are true?",No data was saved during the experiment.,Sun Aug 15 2021 09:55:38 GMT+0200 (CEST),1629014138244,1.3421166666666666,NA,attention_trial,1
2557,,24762,20,1,1629014218771,NA,259,female,1,strongly disagree,strongly agree,NA,NA,NA,NA,NA,NA,NA,I identify with Pro-Gun Enthusiasts,3,Sun Aug 15 2021 09:55:38 GMT+0200 (CEST),1629014138244,1.3421166666666666,Gun control,identification_trial,1
2557,,4499,20,1,1629014218771,NA,259,female,1,strongly disagree,strongly agree,NA,NA,NA,NA,NA,NA,NA,I identify with Feminists,-3,Sun Aug 15 2021 09:55:38 GMT+0200 (CEST),1629014138244,1.3421166666666666,Feminism,identification_trial,2
2556,,9210,29,1,1628981267877,NA,259,female,1,Gun control,Feminism,Joe Biden,Immigration and Dreamers,Transgender rights,Drug legalization,The Black Lives Matter movement,Climate change,Taxing religious organization,What's the most important topic for you?,Climate change,Sat Aug 14 2021 17:47:28 GMT-0500 (Central Daylight Time),1628981248851,0.3171,NA,topic_choice_trial,1
2556,,4695,29,1,1628981267877,NA,259,female,1,strongly disagree,strongly agree,NA,NA,NA,NA,NA,NA,NA,Adults should have the right to carry a concealed handgun,5,Sat Aug 14 2021 17:47:28 GMT-0500 (Central Daylight Time),1628981248851,0.3171,Gun control,group_rating,1
2556,,37073,29,1,1628981267877,NA,259,female,1,Definitely call the police and report the robber,Definitely do nothing and leave the robber alone,NA,NA,NA,NA,NA,NA,NA,"Imagine you have witnessed a man rob a bank. However, you then saw him do something unexpected with the money. He donated it all to a run-down orphanage that would benefit greatly from the money. You must decide whether to call the police and report the robber or do nothing and leave the robber alone.",3,Sat Aug 14 2021 17:47:28 GMT-0500 (Central Daylight Time),1628981248851,0.3171,NA,dilemma_trial,1
2556,,2282,29,1,1628981267877,NA,259,female,1,I have a very bad feeling,I have a very good feeling,NA,NA,NA,NA,NA,NA,NA,How do you feel about your choice?,2,Sat Aug 14 2021 17:47:28 GMT-0500 (Central Daylight Time),1628981248851,0.3171,NA,feeling_trial,1
2556,,14693,29,1,1628981267877,Participants chose which action they preferred,259,female,1,Participants chose which action they preferred,"Due to a computer error, participants were not allocated equally to imagine performing the different actions",No data was saved during the experiment.,The participants completed the experiment with their eyes closed.,NA,NA,NA,NA,NA,"As mentioned before, this study is a follow-up to a previous study. Given the information provided in the instructions, which of the following statements about the previous study are true?",No data was saved during the experiment.,Sat Aug 14 2021 17:47:28 GMT-0500 (Central Daylight Time),1628981248851,0.3171,NA,attention_trial,1
2556,,7398,29,1,1628981267877,NA,259,female,1,strongly disagree,strongly agree,NA,NA,NA,NA,NA,NA,NA,I identify with Pro-Gun Enthusiasts,1,Sat Aug 14 2021 17:47:28 GMT-0500 (Central Daylight Time),1628981248851,0.3171,Gun control,identification_trial,1
2556,,4607,29,1,1628981267877,NA,259,female,1,strongly disagree,strongly agree,NA,NA,NA,NA,NA,NA,NA,I identify with Feminists,-3,Sat Aug 14 2021 17:47:28 GMT-0500 (Central Daylight Time),1628981248851,0.3171,Feminism,identification_trial,2
2555,,11731,50,1,1628979751470,NA,259,female,-1,Gun control,Feminism,Joe Biden,Immigration and Dreamers,Transgender rights,Drug legalization,The Black Lives Matter movement,Climate change,Taxing religious organization,What's the most important topic for you?,Climate change,Sat Aug 14 2021 17:21:05 GMT-0500 (CDT),1628979665324,1.4357666666666666,NA,topic_choice_trial,1
2555,,4957,50,1,1628979751470,NA,259,female,-1,strongly disagree,strongly agree,NA,NA,NA,NA,NA,NA,NA,Adults should have the right to carry a concealed handgun,5,Sat Aug 14 2021 17:21:05 GMT-0500 (CDT),1628979665324,1.4357666666666666,Gun control,group_rating,1
2555,,31199,50,1,1628979751470,NA,259,female,-1,Definitely call the police and report the robber,Definitely do nothing and leave the robber alone,NA,NA,NA,NA,NA,NA,NA,"Imagine you have witnessed a man rob a bank. However, you then saw him do something unexpected with the money. He donated it all to a run-down orphanage that would benefit greatly from the money. You must decide whether to call the police and report the robber or do nothing and leave the robber alone.",-2,Sat Aug 14 2021 17:21:05 GMT-0500 (CDT),1628979665324,1.4357666666666666,NA,dilemma_trial,1
2555,,6595,50,1,1628979751470,NA,259,female,-1,I have a very bad feeling,I have a very good feeling,NA,NA,NA,NA,NA,NA,NA,How do you feel about your choice?,1,Sat Aug 14 2021 17:21:05 GMT-0500 (CDT),1628979665324,1.4357666666666666,NA,feeling_trial,1
